,run,condition,emo,cert,rt,trial,sub,acc,shock,control,receiveShock
1,1,Uncontrollable Unpleasant,3,2,0,1,3,0,Unpleasant,Uncontrollable,1
2,1,Uncontrollable Perceptible,3,2,0,2,3,0,Mild,Uncontrollable,1
3,1,Controllable Unpleasant,4,3,0,3,3,0,Unpleasant,Controllable,1
4,1,Controllable Perceptible,2,3,0,4,3,0,Mild,Controllable,1
5,1,Controllable Unpleasant,3,3,0,5,3,0,Unpleasant,Controllable,1
6,1,Controllable Perceptible,2,3,0.7811535,6,3,1,Mild,Controllable,0
7,1,Uncontrollable Perceptible,2,3,0,7,3,0,Mild,Uncontrollable,1
8,1,Uncontrollable Unpleasant,2,3,0,8,3,0,Unpleasant,Uncontrollable,1
9,1,Uncontrollable Perceptible,1,3,0,9,3,0,Mild,Uncontrollable,1
10,1,Controllable Perceptible,1,3,0.9144185,10,3,1,Mild,Controllable,0
11,1,Uncontrollable Unpleasant,2,2,0,11,3,0,Unpleasant,Uncontrollable,1
12,1,Controllable Unpleasant,3,3,0,12,3,0,Unpleasant,Controllable,1
13,2,Controllable Perceptible,3,2,0,13,3,0,Mild,Controllable,1
14,2,Uncontrollable Unpleasant,2,2,0.9146405,14,3,1,Unpleasant,Uncontrollable,1
15,2,Controllable Unpleasant,1,3,0.8649577,15,3,1,Unpleasant,Controllable,0
16,2,Uncontrollable Perceptible,2,3,0,16,3,0,Mild,Uncontrollable,1
17,2,Uncontrollable Unpleasant,3,2,0.8317905,17,3,1,Unpleasant,Uncontrollable,1
18,2,Controllable Perceptible,2,2,0,18,3,0,Mild,Controllable,1
19,2,Controllable Unpleasant,1,3,0.9480171,19,3,1,Unpleasant,Controllable,0
20,2,Uncontrollable Perceptible,2,2,0.8817082,20,3,1,Mild,Uncontrollable,1
21,2,Uncontrollable Unpleasant,2,3,0.8650659,21,3,1,Unpleasant,Uncontrollable,1
22,2,Controllable Perceptible,3,3,0,22,3,0,Mild,Controllable,1
23,2,Uncontrollable Perceptible,1,3,0,23,3,0,Mild,Uncontrollable,1
24,2,Controllable Unpleasant,2,2,0.931801,24,3,1,Unpleasant,Controllable,0
25,3,Uncontrollable Perceptible,2,2,0,25,3,0,Mild,Uncontrollable,1
26,3,Controllable Unpleasant,3,3,0.8982087,26,3,1,Unpleasant,Controllable,0
27,3,Controllable Perceptible,1,3,0.8150424,27,3,1,Mild,Controllable,0
28,3,Uncontrollable Unpleasant,2,3,0,28,3,0,Unpleasant,Uncontrollable,1
29,3,Uncontrollable Unpleasant,2,2,0,29,3,0,Unpleasant,Uncontrollable,1
30,3,Uncontrollable Perceptible,2,2,0,30,3,0,Mild,Uncontrollable,1
31,3,Controllable Perceptible,1,3,0.9316613,31,3,1,Mild,Controllable,0
32,3,Controllable Unpleasant,3,2,0,32,3,0,Unpleasant,Controllable,1
33,3,Uncontrollable Unpleasant,2,3,0.9484405,33,3,1,Unpleasant,Uncontrollable,1
34,3,Controllable Unpleasant,2,3,0.8313653,34,3,1,Unpleasant,Controllable,0
35,3,Controllable Perceptible,1,3,0.8650438,35,3,1,Mild,Controllable,0
36,3,Uncontrollable Perceptible,2,3,0.9487407,36,3,1,Mild,Uncontrollable,1
37,4,Uncontrollable Perceptible,2,3,0,37,3,0,Mild,Uncontrollable,1
38,4,Controllable Unpleasant,3,2,0.7813513,38,3,1,Unpleasant,Controllable,0
39,4,Controllable Perceptible,3,3,0.8143069,39,3,1,Mild,Controllable,0
40,4,Uncontrollable Unpleasant,1,3,0.8308132,40,3,1,Unpleasant,Uncontrollable,1
41,4,Controllable Unpleasant,3,2,0.8479795,41,3,1,Unpleasant,Controllable,0
42,4,Uncontrollable Perceptible,1,3,0.9143519,42,3,1,Mild,Uncontrollable,1
43,4,Controllable Perceptible,2,3,0,43,3,0,Mild,Controllable,1
44,4,Uncontrollable Unpleasant,2,2,0.8149424,44,3,1,Unpleasant,Uncontrollable,1
45,4,Uncontrollable Unpleasant,3,3,0.8981136,45,3,1,Unpleasant,Uncontrollable,1
46,4,Uncontrollable Perceptible,1,3,0,46,3,0,Mild,Uncontrollable,1
47,4,Controllable Perceptible,3,2,0.8975711,47,3,1,Mild,Controllable,0
48,4,Controllable Unpleasant,3,3,0.8654668,48,3,1,Unpleasant,Controllable,0
49,5,Uncontrollable Perceptible,1,3,0,49,3,0,Mild,Uncontrollable,1
50,5,Uncontrollable Unpleasant,2,3,0.9315529,50,3,1,Unpleasant,Uncontrollable,1
51,5,Controllable Perceptible,2,3,0,51,3,0,Mild,Controllable,1
52,5,Controllable Unpleasant,3,3,0.8479278,52,3,1,Unpleasant,Controllable,0
53,5,Controllable Unpleasant,3,2,0.8153607,53,3,1,Unpleasant,Controllable,0
54,5,Controllable Perceptible,1,3,0.7640555,54,3,1,Mild,Controllable,0
55,5,Uncontrollable Unpleasant,3,2,0.8643595,55,3,1,Unpleasant,Uncontrollable,1
56,5,Uncontrollable Perceptible,1,3,0,56,3,0,Mild,Uncontrollable,1
57,5,Controllable Unpleasant,3,3,0.9316723,57,3,1,Unpleasant,Controllable,0
58,5,Uncontrollable Unpleasant,3,3,0.7816503,58,3,1,Unpleasant,Uncontrollable,1
59,5,Uncontrollable Perceptible,1,3,0.865194,59,3,1,Mild,Uncontrollable,1
60,5,Controllable Perceptible,2,3,0,60,3,0,Mild,Controllable,1
61,6,Uncontrollable Unpleasant,3,2,0,61,3,0,Unpleasant,Uncontrollable,1
62,6,Uncontrollable Perceptible,1,3,0.7152417,62,3,1,Mild,Uncontrollable,1
63,6,Controllable Unpleasant,3,3,0.9144631,63,3,1,Unpleasant,Controllable,0
64,6,Controllable Perceptible,2,3,0.8811114,64,3,1,Mild,Controllable,0
65,6,Controllable Unpleasant,3,3,0.8154462,65,3,1,Unpleasant,Controllable,0
66,6,Uncontrollable Unpleasant,2,3,0.881887,66,3,1,Unpleasant,Uncontrollable,1
67,6,Uncontrollable Perceptible,1,3,0,67,3,0,Mild,Uncontrollable,1
68,6,Controllable Perceptible,2,3,0.8647154,68,3,1,Mild,Controllable,0
69,6,Uncontrollable Perceptible,1,3,0.9152683,69,3,1,Mild,Uncontrollable,1
70,6,Controllable Perceptible,3,3,0.7977257,70,3,1,Mild,Controllable,0
71,6,Controllable Unpleasant,3,2,0.8478626,71,3,1,Unpleasant,Controllable,0
72,6,Uncontrollable Unpleasant,2,2,0.8482483,72,3,1,Unpleasant,Uncontrollable,1
73,7,Controllable Unpleasant,3,3,0.7650276,73,3,1,Unpleasant,Controllable,0
74,7,Uncontrollable Perceptible,1,2,0.9478569,74,3,1,Mild,Uncontrollable,1
75,7,Controllable Perceptible,1,3,0.8641851,75,3,1,Mild,Controllable,0
76,7,Uncontrollable Unpleasant,3,3,0,76,3,0,Unpleasant,Uncontrollable,1
77,7,Uncontrollable Unpleasant,3,2,0.7149749,77,3,1,Unpleasant,Uncontrollable,1
78,7,Uncontrollable Perceptible,2,1,0,78,3,0,Mild,Uncontrollable,1
79,7,Controllable Unpleasant,2,3,0.9484272,79,3,1,Unpleasant,Controllable,0
80,7,Controllable Perceptible,3,3,0,80,3,0,Mild,Controllable,1
81,7,Uncontrollable Perceptible,1,3,0.7320238,81,3,1,Mild,Uncontrollable,1
82,7,Uncontrollable Unpleasant,2,3,0.9310278,82,3,1,Unpleasant,Uncontrollable,1
83,7,Controllable Unpleasant,3,3,0.8986803,83,3,1,Unpleasant,Controllable,0
84,7,Controllable Perceptible,1,3,0,84,3,0,Mild,Controllable,1
85,1,Uncontrollable Perceptible,1,1,0,1,4,0,Mild,Uncontrollable,1
86,1,Controllable Unpleasant,2,2,0,2,4,0,Unpleasant,Controllable,1
87,1,Uncontrollable Unpleasant,2,2,0.9478984,3,4,1,Unpleasant,Uncontrollable,1
88,1,Controllable Perceptible,1,1,0,4,4,0,Mild,Controllable,1
89,1,Controllable Unpleasant,2,2,0,5,4,0,Unpleasant,Controllable,1
90,1,Controllable Perceptible,1,1,0,6,4,0,Mild,Controllable,1
91,1,Uncontrollable Perceptible,1,1,0,7,4,0,Mild,Uncontrollable,1
92,1,Uncontrollable Unpleasant,2,2,0,8,4,0,Unpleasant,Uncontrollable,1
93,1,Uncontrollable Unpleasant,2,2,0.8807864,9,4,1,Unpleasant,Uncontrollable,1
94,1,Controllable Unpleasant,2,2,0,10,4,0,Unpleasant,Controllable,1
95,1,Controllable Perceptible,1,1,0,11,4,0,Mild,Controllable,1
96,1,Uncontrollable Perceptible,1,1,0.9306521,12,4,1,Mild,Uncontrollable,1
97,2,Controllable Perceptible,1,1,0,13,4,0,Mild,Controllable,1
98,2,Uncontrollable Perceptible,1,1,0,14,4,0,Mild,Uncontrollable,1
99,2,Controllable Unpleasant,1,1,0.8815981,15,4,1,Unpleasant,Controllable,0
100,2,Uncontrollable Unpleasant,2,2,0,16,4,0,Unpleasant,Uncontrollable,1
101,2,Controllable Perceptible,1,1,0,17,4,0,Mild,Controllable,1
102,2,Uncontrollable Perceptible,1,1,0.8654447,18,4,1,Mild,Uncontrollable,1
103,2,Uncontrollable Unpleasant,2,2,0.8469525,19,4,1,Unpleasant,Uncontrollable,1
104,2,Controllable Unpleasant,2,2,0,20,4,0,Unpleasant,Controllable,1
105,2,Controllable Perceptible,1,1,0,21,4,0,Mild,Controllable,1
106,2,Controllable Unpleasant,1,1,0.8639532,22,4,1,Unpleasant,Controllable,0
107,2,Uncontrollable Unpleasant,2,2,0.913765,23,4,1,Unpleasant,Uncontrollable,1
108,2,Uncontrollable Perceptible,1,1,0,24,4,0,Mild,Uncontrollable,1
109,3,Uncontrollable Unpleasant,2,2,0.8815295,25,4,1,Unpleasant,Uncontrollable,1
110,3,Controllable Unpleasant,2,2,0,26,4,0,Unpleasant,Controllable,1
111,3,Controllable Perceptible,1,1,0.8476376,27,4,1,Mild,Controllable,0
112,3,Uncontrollable Perceptible,1,1,0,28,4,0,Mild,Uncontrollable,1
113,3,Controllable Perceptible,1,1,0,29,4,0,Mild,Controllable,1
114,3,Uncontrollable Perceptible,1,1,0.8483891,30,4,1,Mild,Uncontrollable,1
115,3,Controllable Unpleasant,1,1,0.9479416,31,4,1,Unpleasant,Controllable,0
116,3,Uncontrollable Unpleasant,2,2,0.863984,32,4,1,Unpleasant,Uncontrollable,1
117,3,Controllable Unpleasant,1,1,0.8485826,33,4,1,Unpleasant,Controllable,0
118,3,Uncontrollable Unpleasant,2,2,0.9483091,34,4,1,Unpleasant,Uncontrollable,1
119,3,Uncontrollable Perceptible,1,1,0.8651904,35,4,1,Mild,Uncontrollable,1
120,3,Controllable Perceptible,1,1,0,36,4,0,Mild,Controllable,1
121,4,Uncontrollable Perceptible,1,1,0,37,4,0,Mild,Uncontrollable,1
122,4,Controllable Perceptible,1,1,0.8816491,38,4,1,Mild,Controllable,0
123,4,Controllable Unpleasant,1,1,0.8144913,39,4,1,Unpleasant,Controllable,0
124,4,Uncontrollable Unpleasant,2,2,0,40,4,0,Unpleasant,Uncontrollable,1
125,4,Controllable Perceptible,1,1,0.8806695,41,4,1,Mild,Controllable,0
126,4,Controllable Unpleasant,2,2,0,42,4,0,Unpleasant,Controllable,1
127,4,Uncontrollable Unpleasant,2,2,0.930815,43,4,1,Unpleasant,Uncontrollable,1
128,4,Uncontrollable Perceptible,1,1,0.9320196,44,4,1,Mild,Uncontrollable,1
129,4,Controllable Unpleasant,1,1,0.8483,45,4,1,Unpleasant,Controllable,0
130,4,Uncontrollable Unpleasant,2,2,0.7803784,46,4,1,Unpleasant,Uncontrollable,1
131,4,Uncontrollable Perceptible,1,1,0.7977628,47,4,1,Mild,Uncontrollable,1
132,4,Controllable Perceptible,1,1,0,48,4,0,Mild,Controllable,1
133,5,Controllable Perceptible,1,1,0,49,4,0,Mild,Controllable,1
134,5,Uncontrollable Perceptible,1,1,0.8481815,50,4,1,Mild,Uncontrollable,1
135,5,Controllable Unpleasant,1,1,0.8485775,51,4,1,Unpleasant,Controllable,0
136,5,Uncontrollable Unpleasant,2,2,0.797892,52,4,1,Unpleasant,Uncontrollable,1
137,5,Controllable Unpleasant,1,1,0.7473436,53,4,1,Unpleasant,Controllable,0
138,5,Uncontrollable Unpleasant,2,2,0,54,4,0,Unpleasant,Uncontrollable,1
139,5,Uncontrollable Perceptible,1,1,0.8811858,55,4,1,Mild,Uncontrollable,1
140,5,Controllable Perceptible,1,1,0.8815644,56,4,1,Mild,Controllable,0
141,5,Controllable Unpleasant,1,1,0.8639096,57,4,1,Unpleasant,Controllable,0
142,5,Uncontrollable Perceptible,1,1,0.8981103,58,4,1,Mild,Uncontrollable,1
143,5,Uncontrollable Unpleasant,2,2,0,59,4,0,Unpleasant,Uncontrollable,1
144,5,Controllable Perceptible,1,1,0.864476,60,4,1,Mild,Controllable,0
145,6,Uncontrollable Unpleasant,2,2,0.8975911,61,4,1,Unpleasant,Uncontrollable,1
146,6,Controllable Unpleasant,1,1,0.8650375,62,4,1,Unpleasant,Controllable,0
147,6,Controllable Perceptible,1,1,0.8976661,63,4,1,Mild,Controllable,0
148,6,Uncontrollable Perceptible,1,1,0.8651239,64,4,1,Mild,Uncontrollable,1
149,6,Controllable Perceptible,1,1,0,65,4,0,Mild,Controllable,1
150,6,Uncontrollable Unpleasant,2,2,0.8473243,66,4,1,Unpleasant,Uncontrollable,1
151,6,Uncontrollable Perceptible,1,1,0.7488043,67,4,1,Mild,Uncontrollable,1
152,6,Controllable Unpleasant,1,1,0.8320538,68,4,1,Unpleasant,Controllable,0
153,6,Controllable Unpleasant,1,1,0,69,4,0,Unpleasant,Controllable,1
154,6,Controllable Perceptible,1,1,0.7653804,70,4,1,Mild,Controllable,0
155,6,Uncontrollable Unpleasant,2,2,0,71,4,0,Unpleasant,Uncontrollable,1
156,6,Uncontrollable Perceptible,1,1,0.7813102,72,4,1,Mild,Uncontrollable,1
157,7,Uncontrollable Unpleasant,2,2,0.8313828,73,4,1,Unpleasant,Uncontrollable,1
158,7,Controllable Unpleasant,1,1,0.8146951,74,4,1,Unpleasant,Controllable,0
159,7,Uncontrollable Perceptible,1,1,0.8639187,75,4,1,Mild,Uncontrollable,1
160,7,Controllable Perceptible,1,1,0,76,4,0,Mild,Controllable,1
161,7,Uncontrollable Unpleasant,2,2,0,77,4,0,Unpleasant,Uncontrollable,1
162,7,Uncontrollable Perceptible,1,1,0,78,4,0,Mild,Uncontrollable,1
163,7,Controllable Unpleasant,2,2,0,79,4,0,Unpleasant,Controllable,1
164,7,Controllable Perceptible,1,0,0.8140166,80,4,1,Mild,Controllable,0
165,7,Controllable Unpleasant,1,1,0.7980968,81,4,1,Unpleasant,Controllable,0
166,7,Uncontrollable Unpleasant,2,2,0.7805775,82,4,1,Unpleasant,Uncontrollable,1
167,7,Uncontrollable Perceptible,1,1,0.7485259,83,4,1,Mild,Uncontrollable,1
168,7,Controllable Perceptible,1,1,0.8487956,84,4,1,Mild,Controllable,0
169,1,Uncontrollable Unpleasant,2,4,0,1,6,0,Unpleasant,Uncontrollable,1
170,1,Uncontrollable Perceptible,2,4,0,2,6,0,Mild,Uncontrollable,1
171,1,Controllable Perceptible,1,4,0,3,6,0,Mild,Controllable,1
172,1,Controllable Unpleasant,2,4,0,4,6,0,Unpleasant,Controllable,1
173,1,Uncontrollable Perceptible,4,1,0,5,6,0,Mild,Uncontrollable,1
174,1,Controllable Perceptible,1,4,0,6,6,0,Mild,Controllable,1
175,1,Controllable Unpleasant,2,4,0,7,6,0,Unpleasant,Controllable,1
176,1,Uncontrollable Unpleasant,2,4,0,8,6,0,Unpleasant,Uncontrollable,1
177,1,Uncontrollable Perceptible,2,4,0,9,6,0,Mild,Uncontrollable,1
178,1,Controllable Unpleasant,1,4,0,10,6,0,Unpleasant,Controllable,1
179,1,Uncontrollable Unpleasant,2,4,0,11,6,0,Unpleasant,Uncontrollable,1
180,1,Controllable Perceptible,1,4,0.8647658,12,6,1,Mild,Controllable,0
181,2,Uncontrollable Perceptible,1,4,0.8478253,13,6,1,Mild,Uncontrollable,1
182,2,Controllable Unpleasant,2,4,0.9145481,14,6,1,Unpleasant,Controllable,0
183,2,Uncontrollable Unpleasant,3,4,0,15,6,0,Unpleasant,Uncontrollable,1
184,2,Controllable Perceptible,1,4,0.9480332,16,6,1,Mild,Controllable,0
185,2,Controllable Perceptible,1,4,0.8471363,17,6,1,Mild,Controllable,0
186,2,Uncontrollable Unpleasant,3,4,0.8311139,18,6,1,Unpleasant,Uncontrollable,1
187,2,Uncontrollable Perceptible,2,4,0.9655171,19,6,1,Mild,Uncontrollable,1
188,2,Controllable Unpleasant,2,4,0.9306057,20,6,1,Unpleasant,Controllable,0
189,2,Controllable Perceptible,3,4,0,21,6,0,Mild,Controllable,1
190,2,Uncontrollable Unpleasant,2,4,0.7144176,22,6,1,Unpleasant,Uncontrollable,1
191,2,Uncontrollable Perceptible,1,4,0.7979914,23,6,1,Mild,Uncontrollable,1
192,2,Controllable Unpleasant,2,4,0.8485752,24,6,1,Unpleasant,Controllable,0
193,3,Controllable Perceptible,3,4,0.8809719,25,6,1,Mild,Controllable,0
194,3,Uncontrollable Unpleasant,2,4,0,26,6,0,Unpleasant,Uncontrollable,1
195,3,Controllable Unpleasant,3,4,0.9474632,27,6,1,Unpleasant,Controllable,0
196,3,Uncontrollable Perceptible,2,4,0,28,6,0,Mild,Uncontrollable,1
197,3,Controllable Unpleasant,3,4,0.8140145,29,6,1,Unpleasant,Controllable,0
198,3,Uncontrollable Unpleasant,2,4,0,30,6,0,Unpleasant,Uncontrollable,1
199,3,Uncontrollable Perceptible,2,4,0.7309109,31,6,1,Mild,Uncontrollable,1
200,3,Controllable Perceptible,2,4,0.914033,32,6,1,Mild,Controllable,0
201,3,Controllable Perceptible,2,4,0.8814063,33,6,1,Mild,Controllable,0
202,3,Controllable Unpleasant,2,4,0.7811198,34,6,1,Unpleasant,Controllable,0
203,3,Uncontrollable Unpleasant,2,4,0,35,6,0,Unpleasant,Uncontrollable,1
204,3,Uncontrollable Perceptible,1,4,0,36,6,0,Mild,Uncontrollable,1
205,4,Controllable Perceptible,2,4,0.9146754,37,6,1,Mild,Controllable,0
206,4,Controllable Unpleasant,3,4,0,38,6,0,Unpleasant,Controllable,1
207,4,Uncontrollable Perceptible,1,4,0,39,6,0,Mild,Uncontrollable,1
208,4,Uncontrollable Unpleasant,2,4,0.7308492,40,6,1,Unpleasant,Uncontrollable,1
209,4,Controllable Unpleasant,3,4,0.7649306,41,6,1,Unpleasant,Controllable,0
210,4,Controllable Perceptible,2,4,0,42,6,0,Mild,Controllable,1
211,4,Uncontrollable Perceptible,2,4,0,43,6,0,Mild,Uncontrollable,1
212,4,Uncontrollable Unpleasant,2,4,0.8819306,44,6,1,Unpleasant,Uncontrollable,1
213,4,Controllable Perceptible,3,4,0.8145827,45,6,1,Mild,Controllable,0
214,4,Controllable Unpleasant,3,4,0,46,6,0,Unpleasant,Controllable,1
215,4,Uncontrollable Unpleasant,2,4,0,47,6,0,Unpleasant,Uncontrollable,1
216,4,Uncontrollable Perceptible,1,4,0,48,6,0,Mild,Uncontrollable,1
217,5,Controllable Unpleasant,3,4,0.7644156,49,6,1,Unpleasant,Controllable,0
218,5,Controllable Perceptible,2,4,0.7145239,50,6,1,Mild,Controllable,0
219,5,Uncontrollable Unpleasant,3,4,0,51,6,0,Unpleasant,Uncontrollable,1
220,5,Uncontrollable Perceptible,1,4,0,52,6,0,Mild,Uncontrollable,1
221,5,Controllable Perceptible,3,4,0.8817706,53,6,1,Mild,Controllable,0
222,5,Controllable Unpleasant,3,4,0.6143348,54,6,1,Unpleasant,Controllable,0
223,5,Uncontrollable Perceptible,1,4,0.8477861,55,6,1,Mild,Uncontrollable,1
224,5,Uncontrollable Unpleasant,3,4,0.7487278,56,6,1,Unpleasant,Uncontrollable,1
225,5,Uncontrollable Unpleasant,2,4,0.7144436,57,6,1,Unpleasant,Uncontrollable,1
226,5,Uncontrollable Perceptible,2,4,0,58,6,0,Mild,Uncontrollable,1
227,5,Controllable Unpleasant,2,4,0.7975705,59,6,1,Unpleasant,Controllable,0
228,5,Controllable Perceptible,2,4,0,60,6,0,Mild,Controllable,1
229,6,Controllable Perceptible,2,4,0,61,6,0,Mild,Controllable,1
230,6,Uncontrollable Unpleasant,3,4,0,62,6,0,Unpleasant,Uncontrollable,1
231,6,Uncontrollable Perceptible,1,4,0.7644768,63,6,1,Mild,Uncontrollable,1
232,6,Controllable Unpleasant,3,4,0.7642725,64,6,1,Unpleasant,Controllable,0
233,6,Uncontrollable Unpleasant,3,4,0,65,6,0,Unpleasant,Uncontrollable,1
234,6,Uncontrollable Perceptible,1,4,0,66,6,0,Mild,Uncontrollable,1
235,6,Controllable Perceptible,2,4,0.5814236,67,6,1,Mild,Controllable,0
236,6,Controllable Unpleasant,3,4,0.8472606,68,6,1,Unpleasant,Controllable,0
237,6,Controllable Perceptible,2,4,0,69,6,0,Mild,Controllable,1
238,6,Controllable Unpleasant,3,4,0.8981983,70,6,1,Unpleasant,Controllable,0
239,6,Uncontrollable Perceptible,2,4,0,71,6,0,Mild,Uncontrollable,1
240,6,Uncontrollable Unpleasant,2,4,0,72,6,0,Unpleasant,Uncontrollable,1
241,7,Uncontrollable Unpleasant,2,4,0,73,6,0,Unpleasant,Uncontrollable,1
242,7,Controllable Unpleasant,2,4,0,74,6,0,Unpleasant,Controllable,1
243,7,Uncontrollable Perceptible,1,4,0,75,6,0,Mild,Uncontrollable,1
244,7,Controllable Perceptible,2,4,0.7648645,76,6,1,Mild,Controllable,0
245,7,Controllable Perceptible,2,4,0.6479104,77,6,1,Mild,Controllable,0
246,7,Uncontrollable Unpleasant,2,4,0.7644561,78,6,1,Unpleasant,Uncontrollable,1
247,7,Uncontrollable Perceptible,2,4,0,79,6,0,Mild,Uncontrollable,1
248,7,Controllable Unpleasant,3,4,0.697554,80,6,1,Unpleasant,Controllable,0
249,7,Controllable Perceptible,2,4,0.6975359,81,6,1,Mild,Controllable,0
250,7,Uncontrollable Perceptible,2,4,0,82,6,0,Mild,Uncontrollable,1
251,7,Uncontrollable Unpleasant,3,4,0.7317901,83,6,1,Unpleasant,Uncontrollable,1
252,7,Controllable Unpleasant,3,4,0,84,6,0,Unpleasant,Controllable,1
253,1,Controllable Unpleasant,0,1,0.9474157,1,8,1,Unpleasant,Controllable,0
254,1,Controllable Perceptible,1,2,0,2,8,0,Mild,Controllable,1
255,1,Uncontrollable Perceptible,1,4,0.8304858,3,8,1,Mild,Uncontrollable,1
256,1,Uncontrollable Unpleasant,3,4,0.964171,4,8,1,Unpleasant,Uncontrollable,1
257,1,Controllable Perceptible,3,4,0.8810049,5,8,1,Mild,Controllable,0
258,1,Controllable Unpleasant,4,4,0.8142652,6,8,1,Unpleasant,Controllable,0
259,1,Uncontrollable Perceptible,1,4,0.9141775,7,8,1,Mild,Uncontrollable,1
260,1,Uncontrollable Unpleasant,3,3,0,8,8,0,Unpleasant,Uncontrollable,1
261,1,Controllable Unpleasant,4,4,0.9154203,9,8,1,Unpleasant,Controllable,0
262,1,Uncontrollable Perceptible,2,3,0,10,8,0,Mild,Uncontrollable,1
263,1,Controllable Perceptible,3,4,0.8976527,11,8,1,Mild,Controllable,0
264,1,Uncontrollable Unpleasant,2,3,0.7640352,12,8,1,Unpleasant,Uncontrollable,1
265,2,Uncontrollable Unpleasant,2,4,0.7810858,13,8,1,Unpleasant,Uncontrollable,1
266,2,Uncontrollable Perceptible,1,2,0.9141685,14,8,1,Mild,Uncontrollable,1
267,2,Controllable Unpleasant,3,2,0,15,8,0,Unpleasant,Controllable,1
268,2,Controllable Perceptible,3,3,0,16,8,0,Mild,Controllable,1
269,2,Uncontrollable Unpleasant,3,2,0.8647376,17,8,1,Unpleasant,Uncontrollable,1
270,2,Controllable Unpleasant,3,1,0,18,8,0,Unpleasant,Controllable,1
271,2,Uncontrollable Perceptible,1,2,0,19,8,0,Mild,Uncontrollable,1
272,2,Controllable Perceptible,3,2,0,20,8,0,Mild,Controllable,1
273,2,Uncontrollable Unpleasant,3,3,0,21,8,0,Unpleasant,Uncontrollable,1
274,2,Controllable Unpleasant,3,2,0,22,8,0,Unpleasant,Controllable,1
275,2,Uncontrollable Perceptible,3,2,0.7979082,23,8,1,Mild,Uncontrollable,1
276,2,Controllable Perceptible,0,0,0,24,8,0,Mild,Controllable,1
277,3,Controllable Unpleasant,3,2,0,25,8,0,Unpleasant,Controllable,1
278,3,Uncontrollable Perceptible,2,3,0.8139502,26,8,1,Mild,Uncontrollable,1
279,3,Controllable Perceptible,3,2,0.7806913,27,8,1,Mild,Controllable,0
280,3,Uncontrollable Unpleasant,2,3,0.7483856,28,8,1,Unpleasant,Uncontrollable,1
281,3,Controllable Unpleasant,4,3,0,29,8,0,Unpleasant,Controllable,1
282,3,Uncontrollable Perceptible,3,2,0.9141101,30,8,1,Mild,Uncontrollable,1
283,3,Controllable Perceptible,3,3,0,31,8,0,Mild,Controllable,1
284,3,Uncontrollable Unpleasant,2,3,0.8636909,32,8,1,Unpleasant,Uncontrollable,1
285,3,Uncontrollable Perceptible,1,2,0.8644185,33,8,1,Mild,Uncontrollable,1
286,3,Controllable Perceptible,1,2,0,34,8,0,Mild,Controllable,1
287,3,Controllable Unpleasant,3,3,0,35,8,0,Unpleasant,Controllable,1
288,3,Uncontrollable Unpleasant,2,3,0.6641613,36,8,1,Unpleasant,Uncontrollable,1
289,4,Controllable Unpleasant,3,3,0,37,8,0,Unpleasant,Controllable,1
290,4,Uncontrollable Unpleasant,2,3,0,38,8,0,Unpleasant,Uncontrollable,1
291,4,Uncontrollable Perceptible,1,4,0.7976259,39,8,1,Mild,Uncontrollable,1
292,4,Controllable Perceptible,2,3,0.7806799,40,8,1,Mild,Controllable,0
293,4,Uncontrollable Unpleasant,3,3,0,41,8,0,Unpleasant,Uncontrollable,1
294,4,Controllable Unpleasant,4,4,0.8478136,42,8,1,Unpleasant,Controllable,0
295,4,Uncontrollable Perceptible,2,3,0.8642938,43,8,1,Mild,Uncontrollable,1
296,4,Controllable Perceptible,2,3,0.8142066,44,8,1,Mild,Controllable,0
297,4,Controllable Unpleasant,4,3,0.7471686,45,8,1,Unpleasant,Controllable,0
298,4,Uncontrollable Perceptible,2,3,0.6983247,46,8,1,Mild,Uncontrollable,1
299,4,Controllable Perceptible,1,2,0,47,8,0,Mild,Controllable,1
300,4,Uncontrollable Unpleasant,2,3,0.7972243,48,8,1,Unpleasant,Uncontrollable,1
301,5,Uncontrollable Unpleasant,3,3,0,49,8,0,Unpleasant,Uncontrollable,1
302,5,Controllable Unpleasant,4,3,0.8134753,50,8,1,Unpleasant,Controllable,0
303,5,Controllable Perceptible,2,2,0,51,8,0,Mild,Controllable,1
304,5,Uncontrollable Perceptible,2,2,0,52,8,0,Mild,Uncontrollable,1
305,5,Uncontrollable Unpleasant,3,3,0,53,8,0,Unpleasant,Uncontrollable,1
306,5,Controllable Unpleasant,4,3,0.8808411,54,8,1,Unpleasant,Controllable,0
307,5,Controllable Perceptible,3,3,0.7984105,55,8,1,Mild,Controllable,0
308,5,Uncontrollable Perceptible,2,2,0,56,8,0,Mild,Uncontrollable,1
309,5,Controllable Unpleasant,4,4,0.8809972,57,8,1,Unpleasant,Controllable,0
310,5,Uncontrollable Perceptible,2,2,0,58,8,0,Mild,Uncontrollable,1
311,5,Uncontrollable Unpleasant,3,3,0,59,8,0,Unpleasant,Uncontrollable,1
312,5,Controllable Perceptible,3,3,0.7807147,60,8,1,Mild,Controllable,0
313,6,Controllable Perceptible,3,3,0.7805192,61,8,1,Mild,Controllable,0
314,6,Controllable Unpleasant,2,2,0,62,8,0,Unpleasant,Controllable,1
315,6,Uncontrollable Unpleasant,3,3,0.7639286,63,8,1,Unpleasant,Uncontrollable,1
316,6,Uncontrollable Perceptible,2,2,0.7480543,64,8,1,Mild,Uncontrollable,1
317,6,Controllable Unpleasant,4,4,0.7639175,65,8,1,Unpleasant,Controllable,0
318,6,Uncontrollable Unpleasant,3,3,0.8140376,66,8,1,Unpleasant,Uncontrollable,1
319,6,Controllable Perceptible,2,3,0.7978385,67,8,1,Mild,Controllable,0
320,6,Uncontrollable Perceptible,1,2,0,68,8,0,Mild,Uncontrollable,1
321,6,Controllable Perceptible,2,4,0,69,8,0,Mild,Controllable,1
322,6,Uncontrollable Unpleasant,3,3,0.8139002,70,8,1,Unpleasant,Uncontrollable,1
323,6,Uncontrollable Perceptible,1,3,0.7977925,71,8,1,Mild,Uncontrollable,1
324,6,Controllable Unpleasant,4,4,0,72,8,0,Unpleasant,Controllable,1
325,7,Controllable Unpleasant,4,3,0,73,8,0,Unpleasant,Controllable,1
326,7,Uncontrollable Perceptible,2,3,0,74,8,0,Mild,Uncontrollable,1
327,7,Controllable Perceptible,2,3,0.7467718,75,8,1,Mild,Controllable,0
328,7,Uncontrollable Unpleasant,4,3,0.8309189,76,8,1,Unpleasant,Uncontrollable,1
329,7,Uncontrollable Unpleasant,4,3,0.8310676,77,8,1,Unpleasant,Uncontrollable,1
330,7,Controllable Unpleasant,4,3,0.7474511,78,8,1,Unpleasant,Controllable,0
331,7,Uncontrollable Perceptible,1,3,0,79,8,0,Mild,Uncontrollable,1
332,7,Controllable Perceptible,3,3,0.9137162,80,8,1,Mild,Controllable,0
333,7,Controllable Perceptible,3,2,0.7312428,81,8,1,Mild,Controllable,0
334,7,Uncontrollable Perceptible,2,2,0.7973679,82,8,1,Mild,Uncontrollable,1
335,7,Controllable Unpleasant,4,4,0.7976915,83,8,1,Unpleasant,Controllable,0
336,7,Uncontrollable Unpleasant,4,4,0.7810623,84,8,1,Unpleasant,Uncontrollable,1
337,4,Uncontrollable Perceptible,0,3,0,1,10,0,Mild,Uncontrollable,1
338,4,Uncontrollable Unpleasant,0,4,0,2,10,0,Unpleasant,Uncontrollable,1
339,4,Controllable Unpleasant,1,4,0.8296762,3,10,1,Unpleasant,Controllable,0
340,4,Controllable Perceptible,2,3,0,4,10,0,Mild,Controllable,1
341,4,Controllable Unpleasant,1,4,0.8131775,5,10,1,Unpleasant,Controllable,0
342,4,Controllable Perceptible,1,4,0.9133101,6,10,1,Mild,Controllable,0
343,4,Uncontrollable Perceptible,2,3,0,7,10,0,Mild,Uncontrollable,1
344,4,Uncontrollable Unpleasant,3,3,0,8,10,0,Unpleasant,Uncontrollable,1
345,4,Uncontrollable Unpleasant,0,3,0,9,10,0,Unpleasant,Uncontrollable,1
346,4,Controllable Perceptible,1,3,0.8304439,10,10,1,Mild,Controllable,0
347,4,Uncontrollable Perceptible,1,3,0,11,10,0,Mild,Uncontrollable,1
348,4,Controllable Unpleasant,1,4,0.8298282,12,10,1,Unpleasant,Controllable,0
349,5,Uncontrollable Unpleasant,0,3,0,13,10,0,Unpleasant,Uncontrollable,1
350,5,Controllable Unpleasant,3,4,0,14,10,0,Unpleasant,Controllable,1
351,5,Controllable Perceptible,2,4,0,15,10,0,Mild,Controllable,1
352,5,Uncontrollable Perceptible,0,3,0,16,10,0,Mild,Uncontrollable,1
353,5,Uncontrollable Perceptible,0,4,0,17,10,0,Mild,Uncontrollable,1
354,5,Controllable Unpleasant,1,3,0.9295635,18,10,1,Unpleasant,Controllable,0
355,5,Uncontrollable Unpleasant,0,3,0,19,10,0,Unpleasant,Uncontrollable,1
356,5,Controllable Perceptible,2,3,0,20,10,0,Mild,Controllable,1
357,5,Controllable Unpleasant,1,3,0.8467071,21,10,1,Unpleasant,Controllable,0
358,5,Uncontrollable Unpleasant,0,4,0,22,10,0,Unpleasant,Uncontrollable,1
359,5,Controllable Perceptible,2,3,0,23,10,0,Mild,Controllable,1
360,5,Uncontrollable Perceptible,2,3,0,24,10,0,Mild,Uncontrollable,1
361,6,Uncontrollable Perceptible,0,3,0,25,10,0,Mild,Uncontrollable,1
362,6,Uncontrollable Unpleasant,0,3,0,26,10,0,Unpleasant,Uncontrollable,1
363,6,Controllable Unpleasant,1,3,0.8459191,27,10,1,Unpleasant,Controllable,0
364,6,Controllable Perceptible,2,3,0,28,10,0,Mild,Controllable,1
365,6,Uncontrollable Unpleasant,0,4,0,29,10,0,Unpleasant,Uncontrollable,1
366,6,Controllable Perceptible,1,4,0.7962609,30,10,1,Mild,Controllable,0
367,6,Uncontrollable Perceptible,0,3,0,31,10,0,Mild,Uncontrollable,1
368,6,Controllable Unpleasant,1,3,0.8300807,32,10,1,Unpleasant,Controllable,0
369,6,Uncontrollable Unpleasant,0,4,0,33,10,0,Unpleasant,Uncontrollable,1
370,6,Controllable Unpleasant,3,4,0,34,10,0,Unpleasant,Controllable,1
371,6,Uncontrollable Perceptible,0,4,0,35,10,0,Mild,Uncontrollable,1
372,6,Controllable Perceptible,1,4,0.7965255,36,10,1,Mild,Controllable,0
373,7,Controllable Unpleasant,3,4,0,37,10,0,Unpleasant,Controllable,1
374,7,Controllable Perceptible,2,3,0,38,10,0,Mild,Controllable,1
375,7,Uncontrollable Unpleasant,0,4,0,39,10,0,Unpleasant,Uncontrollable,1
376,7,Uncontrollable Perceptible,2,4,0,40,10,0,Mild,Uncontrollable,1
377,7,Controllable Unpleasant,3,4,0,41,10,0,Unpleasant,Controllable,1
378,7,Uncontrollable Unpleasant,3,4,0,42,10,0,Unpleasant,Uncontrollable,1
379,7,Uncontrollable Perceptible,0,3,0,43,10,0,Mild,Uncontrollable,1
380,7,Controllable Perceptible,1,4,0.8631292,44,10,1,Mild,Controllable,0
381,7,Controllable Perceptible,2,3,0,45,10,0,Mild,Controllable,1
382,7,Controllable Unpleasant,1,4,0.8463134,46,10,1,Unpleasant,Controllable,0
383,7,Uncontrollable Perceptible,0,4,0,47,10,0,Mild,Uncontrollable,1
384,7,Uncontrollable Unpleasant,3,3,0,48,10,0,Unpleasant,Uncontrollable,1
385,1,Uncontrollable Unpleasant,2,3,0,1,11,0,Unpleasant,Uncontrollable,1
386,1,Controllable Unpleasant,2,2,0,2,11,0,Unpleasant,Controllable,1
387,1,Controllable Perceptible,2,3,0,3,11,0,Mild,Controllable,1
388,1,Uncontrollable Perceptible,2,3,0,4,11,0,Mild,Uncontrollable,1
389,1,Controllable Unpleasant,3,3,0,5,11,0,Unpleasant,Controllable,1
390,1,Controllable Perceptible,2,3,0,6,11,0,Mild,Controllable,1
391,1,Uncontrollable Unpleasant,2,2,0,7,11,0,Unpleasant,Uncontrollable,1
392,1,Uncontrollable Perceptible,2,2,0,8,11,0,Mild,Uncontrollable,1
393,1,Controllable Perceptible,0,3,0,9,11,0,Mild,Controllable,1
394,1,Controllable Unpleasant,3,2,0.9294799,10,11,1,Unpleasant,Controllable,0
395,1,Uncontrollable Perceptible,2,3,0,11,11,0,Mild,Uncontrollable,1
396,1,Uncontrollable Unpleasant,3,2,0,12,11,0,Unpleasant,Uncontrollable,1
397,2,Controllable Perceptible,2,3,0.9455942,13,11,1,Mild,Controllable,0
398,2,Uncontrollable Unpleasant,3,3,0,14,11,0,Unpleasant,Uncontrollable,1
399,2,Uncontrollable Perceptible,4,2,0.9285675,15,11,1,Mild,Uncontrollable,1
400,2,Controllable Unpleasant,3,2,0,16,11,0,Unpleasant,Controllable,1
401,2,Controllable Perceptible,2,3,0,17,11,0,Mild,Controllable,1
402,2,Controllable Unpleasant,4,3,0.9458579,18,11,1,Unpleasant,Controllable,0
403,2,Uncontrollable Unpleasant,3,3,0,19,11,0,Unpleasant,Uncontrollable,1
404,2,Uncontrollable Perceptible,2,3,0,20,11,0,Mild,Uncontrollable,1
405,2,Uncontrollable Unpleasant,3,3,0,21,11,0,Unpleasant,Uncontrollable,1
406,2,Controllable Perceptible,2,3,0,22,11,0,Mild,Controllable,1
407,2,Controllable Unpleasant,3,3,0.9461238,23,11,1,Unpleasant,Controllable,0
408,2,Uncontrollable Perceptible,2,3,0,24,11,0,Mild,Uncontrollable,1
409,3,Controllable Unpleasant,3,3,0,25,11,0,Unpleasant,Controllable,1
410,3,Uncontrollable Perceptible,2,3,0,26,11,0,Mild,Uncontrollable,1
411,3,Uncontrollable Unpleasant,3,2,0,27,11,0,Unpleasant,Uncontrollable,1
412,3,Controllable Perceptible,3,3,0,28,11,0,Mild,Controllable,1
413,3,Controllable Unpleasant,3,3,0.8627929,29,11,1,Unpleasant,Controllable,0
414,3,Controllable Perceptible,3,3,0,30,11,0,Mild,Controllable,1
415,3,Uncontrollable Perceptible,2,3,0,31,11,0,Mild,Uncontrollable,1
416,3,Uncontrollable Unpleasant,3,3,0,32,11,0,Unpleasant,Uncontrollable,1
417,3,Controllable Unpleasant,3,3,0,33,11,0,Unpleasant,Controllable,1
418,3,Uncontrollable Unpleasant,3,3,0,34,11,0,Unpleasant,Uncontrollable,1
419,3,Controllable Perceptible,2,3,0,35,11,0,Mild,Controllable,1
420,3,Uncontrollable Perceptible,3,3,0,36,11,0,Mild,Uncontrollable,1
421,4,Uncontrollable Perceptible,2,3,0,37,11,0,Mild,Uncontrollable,1
422,4,Controllable Perceptible,3,3,0,38,11,0,Mild,Controllable,1
423,4,Controllable Unpleasant,3,3,0,39,11,0,Unpleasant,Controllable,1
424,4,Uncontrollable Unpleasant,3,2,0,40,11,0,Unpleasant,Uncontrollable,1
425,4,Controllable Unpleasant,2,2,0.7631789,41,11,1,Unpleasant,Controllable,0
426,4,Uncontrollable Perceptible,3,3,0,42,11,0,Mild,Uncontrollable,1
427,4,Controllable Perceptible,3,3,0,43,11,0,Mild,Controllable,1
428,4,Uncontrollable Unpleasant,3,3,0,44,11,0,Unpleasant,Uncontrollable,1
429,4,Uncontrollable Perceptible,3,3,0,45,11,0,Mild,Uncontrollable,1
430,4,Controllable Unpleasant,3,3,0,46,11,0,Unpleasant,Controllable,1
431,4,Controllable Perceptible,3,3,0,47,11,0,Mild,Controllable,1
432,4,Uncontrollable Unpleasant,2,3,0,48,11,0,Unpleasant,Uncontrollable,1
433,5,Controllable Unpleasant,3,3,0,49,11,0,Unpleasant,Controllable,1
434,5,Uncontrollable Perceptible,3,3,0.896708,50,11,1,Mild,Uncontrollable,1
435,5,Controllable Perceptible,3,3,0.8791357,51,11,1,Mild,Controllable,0
436,5,Uncontrollable Unpleasant,3,3,0.8295369,52,11,1,Unpleasant,Uncontrollable,1
437,5,Controllable Perceptible,3,3,0,53,11,0,Mild,Controllable,1
438,5,Uncontrollable Unpleasant,3,3,0.8638523,54,11,1,Unpleasant,Uncontrollable,1
439,5,Uncontrollable Perceptible,4,3,0,55,11,0,Mild,Uncontrollable,1
440,5,Controllable Unpleasant,4,3,0,56,11,0,Unpleasant,Controllable,1
441,5,Controllable Unpleasant,3,3,0,57,11,0,Unpleasant,Controllable,1
442,5,Uncontrollable Unpleasant,3,2,0.8966132,58,11,1,Unpleasant,Uncontrollable,1
443,5,Controllable Perceptible,3,3,0,59,11,0,Mild,Controllable,1
444,5,Uncontrollable Perceptible,2,2,0,60,11,0,Mild,Uncontrollable,1
445,6,Controllable Perceptible,2,3,0,61,11,0,Mild,Controllable,1
446,6,Uncontrollable Perceptible,2,3,0,62,11,0,Mild,Uncontrollable,1
447,6,Uncontrollable Unpleasant,3,3,0,63,11,0,Unpleasant,Uncontrollable,1
448,6,Controllable Unpleasant,3,3,0,64,11,0,Unpleasant,Controllable,1
449,6,Controllable Unpleasant,4,3,0,65,11,0,Unpleasant,Controllable,1
450,6,Uncontrollable Perceptible,2,3,0,66,11,0,Mild,Uncontrollable,1
451,6,Uncontrollable Unpleasant,3,3,0.8291911,67,11,1,Unpleasant,Uncontrollable,1
452,6,Controllable Perceptible,3,3,0,68,11,0,Mild,Controllable,1
453,6,Controllable Perceptible,3,3,0,69,11,0,Mild,Controllable,1
454,6,Uncontrollable Perceptible,2,3,0,70,11,0,Mild,Uncontrollable,1
455,6,Uncontrollable Unpleasant,3,3,0,71,11,0,Unpleasant,Uncontrollable,1
456,6,Controllable Unpleasant,3,3,0,72,11,0,Unpleasant,Controllable,1
457,7,Controllable Unpleasant,3,3,0,73,11,0,Unpleasant,Controllable,1
458,7,Controllable Perceptible,3,3,0,74,11,0,Mild,Controllable,1
459,7,Uncontrollable Perceptible,2,3,0,75,11,0,Mild,Uncontrollable,1
460,7,Uncontrollable Unpleasant,3,3,0,76,11,0,Unpleasant,Uncontrollable,1
461,7,Uncontrollable Perceptible,3,3,0,77,11,0,Mild,Uncontrollable,1
462,7,Controllable Perceptible,3,3,0,78,11,0,Mild,Controllable,1
463,7,Uncontrollable Unpleasant,3,3,0,79,11,0,Unpleasant,Uncontrollable,1
464,7,Controllable Unpleasant,4,3,0,80,11,0,Unpleasant,Controllable,1
465,7,Uncontrollable Perceptible,2,3,0,81,11,0,Mild,Uncontrollable,1
466,7,Controllable Unpleasant,2,2,0,82,11,0,Unpleasant,Controllable,1
467,7,Uncontrollable Unpleasant,3,3,0,83,11,0,Unpleasant,Uncontrollable,1
468,7,Controllable Perceptible,3,3,0,84,11,0,Mild,Controllable,1
469,1,Controllable Perceptible,0,3,0,1,15,0,Mild,Controllable,1
470,1,Controllable Unpleasant,2,3,0.864441,2,15,1,Unpleasant,Controllable,0
471,1,Uncontrollable Unpleasant,2,3,0,3,15,0,Unpleasant,Uncontrollable,1
472,1,Uncontrollable Perceptible,1,4,0,4,15,0,Mild,Uncontrollable,1
473,1,Uncontrollable Unpleasant,2,4,0.9641826,5,15,1,Unpleasant,Uncontrollable,1
474,1,Controllable Unpleasant,0,0,0,6,15,0,Unpleasant,Controllable,1
475,1,Controllable Perceptible,1,4,0.7978358,7,15,1,Mild,Controllable,0
476,1,Uncontrollable Perceptible,1,3,0.8646282,8,15,1,Mild,Uncontrollable,1
477,1,Uncontrollable Unpleasant,2,4,0.8645958,9,15,1,Unpleasant,Uncontrollable,1
478,1,Controllable Unpleasant,2,4,0.9313474,10,15,1,Unpleasant,Controllable,0
479,1,Uncontrollable Perceptible,1,4,0.948286,11,15,1,Mild,Uncontrollable,1
480,1,Controllable Perceptible,2,4,0.9476011,12,15,1,Mild,Controllable,0
481,2,Uncontrollable Perceptible,1,4,0,13,15,0,Mild,Uncontrollable,1
482,2,Uncontrollable Unpleasant,2,4,0,14,15,0,Unpleasant,Uncontrollable,1
483,2,Controllable Unpleasant,2,4,0,15,15,0,Unpleasant,Controllable,1
484,2,Controllable Perceptible,1,3,0,16,15,0,Mild,Controllable,1
485,2,Controllable Perceptible,2,4,0.8815245,17,15,1,Mild,Controllable,0
486,2,Controllable Unpleasant,2,4,0.8811696,18,15,1,Unpleasant,Controllable,0
487,2,Uncontrollable Perceptible,1,4,0.9145981,19,15,1,Mild,Uncontrollable,1
488,2,Uncontrollable Unpleasant,2,4,0,20,15,0,Unpleasant,Uncontrollable,1
489,2,Controllable Unpleasant,2,4,0.7980743,21,15,1,Unpleasant,Controllable,0
490,2,Controllable Perceptible,1,4,0.8307443,22,15,1,Mild,Controllable,0
491,2,Uncontrollable Unpleasant,2,4,0.8977363,23,15,1,Unpleasant,Uncontrollable,1
492,2,Uncontrollable Perceptible,2,4,0.8148999,24,15,1,Mild,Uncontrollable,1
493,3,Uncontrollable Unpleasant,2,4,0,25,15,0,Unpleasant,Uncontrollable,1
494,3,Uncontrollable Perceptible,1,4,0.7478418,26,15,1,Mild,Uncontrollable,1
495,3,Controllable Unpleasant,3,3,0.8306502,27,15,1,Unpleasant,Controllable,0
496,3,Controllable Perceptible,1,4,0,28,15,0,Mild,Controllable,1
497,3,Uncontrollable Unpleasant,2,4,0.797609,29,15,1,Unpleasant,Uncontrollable,1
498,3,Controllable Perceptible,1,4,0.864509,30,15,1,Mild,Controllable,0
499,3,Uncontrollable Perceptible,1,4,0,31,15,0,Mild,Uncontrollable,1
500,3,Controllable Unpleasant,3,4,0.8467195,32,15,1,Unpleasant,Controllable,0
501,3,Controllable Perceptible,1,4,0.8131982,33,15,1,Mild,Controllable,0
502,3,Uncontrollable Unpleasant,2,4,0.7805264,34,15,1,Unpleasant,Uncontrollable,1
503,3,Controllable Unpleasant,3,4,0.7971637,35,15,1,Unpleasant,Controllable,0
504,3,Uncontrollable Perceptible,1,4,0.8647326,36,15,1,Mild,Uncontrollable,1
505,4,Uncontrollable Perceptible,1,4,0,37,15,0,Mild,Uncontrollable,1
506,4,Controllable Unpleasant,3,4,0.8807345,38,15,1,Unpleasant,Controllable,0
507,4,Controllable Perceptible,1,2,0.7984972,39,15,1,Mild,Controllable,0
508,4,Uncontrollable Unpleasant,2,4,0,40,15,0,Unpleasant,Uncontrollable,1
509,4,Controllable Unpleasant,3,4,0.7642792,41,15,1,Unpleasant,Controllable,0
510,4,Uncontrollable Unpleasant,2,4,0.7965977,42,15,1,Unpleasant,Uncontrollable,1
511,4,Controllable Perceptible,1,0,0,43,15,0,Mild,Controllable,1
512,4,Uncontrollable Perceptible,1,3,0.9144967,44,15,1,Mild,Uncontrollable,1
513,4,Uncontrollable Unpleasant,3,2,0.7648163,45,15,1,Unpleasant,Uncontrollable,1
514,4,Controllable Unpleasant,3,4,0.8801143,46,15,1,Unpleasant,Controllable,0
515,4,Controllable Perceptible,0,4,0.8978704,47,15,1,Mild,Controllable,0
516,4,Uncontrollable Perceptible,1,3,0.8813381,48,15,1,Mild,Uncontrollable,1
517,5,Uncontrollable Unpleasant,2,4,0,49,15,0,Unpleasant,Uncontrollable,1
518,5,Controllable Unpleasant,3,2,0,50,15,0,Unpleasant,Controllable,1
519,5,Controllable Perceptible,1,3,0.8643065,51,15,1,Mild,Controllable,0
520,5,Uncontrollable Perceptible,1,4,0.8307329,52,15,1,Mild,Uncontrollable,1
521,5,Controllable Unpleasant,3,4,0.7806411,53,15,1,Unpleasant,Controllable,0
522,5,Uncontrollable Perceptible,1,3,0,54,15,0,Mild,Uncontrollable,1
523,5,Controllable Perceptible,1,3,0,55,15,0,Mild,Controllable,1
524,5,Uncontrollable Unpleasant,2,0,0.581272,56,15,1,Unpleasant,Uncontrollable,1
525,5,Uncontrollable Unpleasant,2,0,0.9137273,57,15,1,Unpleasant,Uncontrollable,1
526,5,Uncontrollable Perceptible,1,0,0,58,15,0,Mild,Uncontrollable,1
527,5,Controllable Perceptible,0,1,0,59,15,0,Mild,Controllable,1
528,5,Controllable Unpleasant,3,4,0.8480476,60,15,1,Unpleasant,Controllable,0
529,6,Controllable Unpleasant,3,4,0,61,15,0,Unpleasant,Controllable,1
530,6,Uncontrollable Perceptible,1,4,0,62,15,0,Mild,Uncontrollable,1
531,6,Controllable Perceptible,1,4,0.8142781,63,15,1,Mild,Controllable,0
532,6,Uncontrollable Unpleasant,2,0,0.8647363,64,15,1,Unpleasant,Uncontrollable,1
533,6,Controllable Unpleasant,3,4,0.9475758,65,15,1,Unpleasant,Controllable,0
534,6,Uncontrollable Perceptible,4,1,0.7643241,66,15,1,Mild,Uncontrollable,1
535,6,Uncontrollable Unpleasant,3,3,0.7312948,67,15,1,Unpleasant,Uncontrollable,1
536,6,Controllable Perceptible,1,4,0.848058,68,15,1,Mild,Controllable,0
537,6,Controllable Unpleasant,3,0,0.947978,69,15,1,Unpleasant,Controllable,0
538,6,Uncontrollable Perceptible,3,3,0,70,15,0,Mild,Uncontrollable,1
539,6,Uncontrollable Unpleasant,2,4,0.8482446,71,15,1,Unpleasant,Uncontrollable,1
540,6,Controllable Perceptible,1,3,0.8308729,72,15,1,Mild,Controllable,0
541,7,Uncontrollable Perceptible,1,4,0,73,15,0,Mild,Uncontrollable,1
542,7,Controllable Perceptible,2,3,0,74,15,0,Mild,Controllable,1
543,7,Controllable Unpleasant,3,4,0.8136072,75,15,1,Unpleasant,Controllable,0
544,7,Uncontrollable Unpleasant,3,3,0,76,15,0,Unpleasant,Uncontrollable,1
545,7,Controllable Perceptible,2,2,0,77,15,0,Mild,Controllable,1
546,7,Uncontrollable Unpleasant,3,3,0,78,15,0,Unpleasant,Uncontrollable,1
547,7,Controllable Unpleasant,3,4,0.8305349,79,15,1,Unpleasant,Controllable,0
548,7,Uncontrollable Perceptible,1,3,0.8299558,80,15,1,Mild,Uncontrollable,1
549,7,Uncontrollable Perceptible,1,0,0,81,15,0,Mild,Uncontrollable,1
550,7,Controllable Unpleasant,3,4,0.8139424,82,15,1,Unpleasant,Controllable,0
551,7,Controllable Perceptible,2,4,0,83,15,0,Mild,Controllable,1
552,7,Uncontrollable Unpleasant,2,4,0.847654,84,15,1,Unpleasant,Uncontrollable,1
553,1,Controllable Perceptible,2,4,0,1,16,0,Mild,Controllable,1
554,1,Controllable Unpleasant,0,3,0.9311763,2,16,1,Unpleasant,Controllable,0
555,1,Uncontrollable Perceptible,1,3,0.8812801,3,16,1,Mild,Uncontrollable,1
556,1,Uncontrollable Unpleasant,3,3,0.8970359,4,16,1,Unpleasant,Uncontrollable,1
557,1,Uncontrollable Unpleasant,2,3,0.8644663,5,16,1,Unpleasant,Uncontrollable,1
558,1,Controllable Perceptible,1,3,0,6,16,0,Mild,Controllable,1
559,1,Uncontrollable Perceptible,1,2,0.8973586,7,16,1,Mild,Uncontrollable,1
560,1,Controllable Unpleasant,3,3,0,8,16,0,Unpleasant,Controllable,1
561,1,Controllable Unpleasant,3,4,0.9311711,9,16,1,Unpleasant,Controllable,0
562,1,Controllable Perceptible,1,4,0.8808965,10,16,1,Mild,Controllable,0
563,1,Uncontrollable Unpleasant,3,3,0.763899,11,16,1,Unpleasant,Uncontrollable,1
564,1,Uncontrollable Perceptible,1,3,0,12,16,0,Mild,Uncontrollable,1
565,2,Uncontrollable Perceptible,1,4,0,13,16,0,Mild,Uncontrollable,1
566,2,Uncontrollable Unpleasant,2,4,0.8647535,14,16,1,Unpleasant,Uncontrollable,1
567,2,Controllable Unpleasant,3,4,0.7810359,15,16,1,Unpleasant,Controllable,0
568,2,Controllable Perceptible,2,3,0,16,16,0,Mild,Controllable,1
569,2,Uncontrollable Perceptible,1,4,0.9147521,17,16,1,Mild,Uncontrollable,1
570,2,Controllable Perceptible,1,4,0.8487045,18,16,1,Mild,Controllable,0
571,2,Uncontrollable Unpleasant,3,3,0,19,16,0,Unpleasant,Uncontrollable,1
572,2,Controllable Unpleasant,3,4,0,20,16,0,Unpleasant,Controllable,1
573,2,Uncontrollable Perceptible,1,4,0.8138729,21,16,1,Mild,Uncontrollable,1
574,2,Controllable Unpleasant,3,4,0,22,16,0,Unpleasant,Controllable,1
575,2,Controllable Perceptible,1,3,0.8808782,23,16,1,Mild,Controllable,0
576,2,Uncontrollable Unpleasant,2,3,0.8809807,24,16,1,Unpleasant,Uncontrollable,1
577,3,Uncontrollable Perceptible,2,3,0,25,16,0,Mild,Uncontrollable,1
578,3,Controllable Unpleasant,3,4,0.7809545,26,16,1,Unpleasant,Controllable,0
579,3,Uncontrollable Unpleasant,3,3,0,27,16,0,Unpleasant,Uncontrollable,1
580,3,Controllable Perceptible,2,4,0.9643021,28,16,1,Mild,Controllable,0
581,3,Controllable Unpleasant,4,3,0.864179,29,16,1,Unpleasant,Controllable,0
582,3,Uncontrollable Unpleasant,3,4,0,30,16,0,Unpleasant,Uncontrollable,1
583,3,Controllable Perceptible,1,3,0.9478906,31,16,1,Mild,Controllable,0
584,3,Uncontrollable Perceptible,2,3,0.9475112,32,16,1,Mild,Uncontrollable,1
585,3,Uncontrollable Perceptible,2,3,0,33,16,0,Mild,Uncontrollable,1
586,3,Uncontrollable Unpleasant,0,2,0,34,16,0,Unpleasant,Uncontrollable,1
587,3,Controllable Unpleasant,3,3,0.7809394,35,16,1,Unpleasant,Controllable,0
588,3,Controllable Perceptible,1,3,0.8807388,36,16,1,Mild,Controllable,0
589,4,Uncontrollable Unpleasant,2,3,0.9307896,37,16,1,Unpleasant,Uncontrollable,1
590,4,Controllable Perceptible,1,4,0.8476287,38,16,1,Mild,Controllable,0
591,4,Controllable Unpleasant,3,4,0.8641961,39,16,1,Unpleasant,Controllable,0
592,4,Uncontrollable Perceptible,1,3,0,40,16,0,Mild,Uncontrollable,1
593,4,Controllable Perceptible,2,4,0,41,16,0,Mild,Controllable,1
594,4,Uncontrollable Perceptible,1,3,0.8979991,42,16,1,Mild,Uncontrollable,1
595,4,Uncontrollable Unpleasant,3,3,0.9645928,43,16,1,Unpleasant,Uncontrollable,1
596,4,Controllable Unpleasant,4,3,0.7306493,44,16,1,Unpleasant,Controllable,0
597,4,Uncontrollable Unpleasant,3,3,0.6812014,45,16,1,Unpleasant,Uncontrollable,1
598,4,Uncontrollable Perceptible,1,3,0,46,16,0,Mild,Uncontrollable,1
599,4,Controllable Perceptible,2,4,0,47,16,0,Mild,Controllable,1
600,4,Controllable Unpleasant,3,3,0,48,16,0,Unpleasant,Controllable,1
601,5,Controllable Unpleasant,3,4,0,49,16,0,Unpleasant,Controllable,1
602,5,Uncontrollable Unpleasant,2,4,0.7313696,50,16,1,Unpleasant,Uncontrollable,1
603,5,Uncontrollable Perceptible,1,4,0,51,16,0,Mild,Uncontrollable,1
604,5,Controllable Perceptible,2,2,0,52,16,0,Mild,Controllable,1
605,5,Controllable Unpleasant,3,3,0,53,16,0,Unpleasant,Controllable,1
606,5,Uncontrollable Perceptible,1,4,0.8812488,54,16,1,Mild,Uncontrollable,1
607,5,Uncontrollable Unpleasant,2,3,0,55,16,0,Unpleasant,Uncontrollable,1
608,5,Controllable Perceptible,1,4,0.73111,56,16,1,Mild,Controllable,0
609,5,Controllable Unpleasant,3,3,0,57,16,0,Unpleasant,Controllable,1
610,5,Uncontrollable Perceptible,1,4,0.9143028,58,16,1,Mild,Uncontrollable,1
611,5,Uncontrollable Unpleasant,3,3,0.7976279,59,16,1,Unpleasant,Uncontrollable,1
612,5,Controllable Perceptible,2,3,0.9153149,60,16,1,Mild,Controllable,0
613,6,Uncontrollable Unpleasant,2,3,0,61,16,0,Unpleasant,Uncontrollable,1
614,6,Uncontrollable Perceptible,1,4,0,62,16,0,Mild,Uncontrollable,1
615,6,Controllable Perceptible,1,4,0.798444,63,16,1,Mild,Controllable,0
616,6,Controllable Unpleasant,3,3,0,64,16,0,Unpleasant,Controllable,1
617,6,Uncontrollable Perceptible,1,4,0.8640367,65,16,1,Mild,Uncontrollable,1
618,6,Controllable Perceptible,2,3,0.7979349,66,16,1,Mild,Controllable,0
619,6,Controllable Unpleasant,3,3,0.7818432,67,16,1,Unpleasant,Controllable,0
620,6,Uncontrollable Unpleasant,2,4,0.7809419,68,16,1,Unpleasant,Uncontrollable,1
621,6,Controllable Unpleasant,3,4,0.8482959,69,16,1,Unpleasant,Controllable,0
622,6,Uncontrollable Unpleasant,1,3,0.8476973,70,16,1,Unpleasant,Uncontrollable,1
623,6,Uncontrollable Perceptible,1,4,0.7815579,71,16,1,Mild,Uncontrollable,1
624,6,Controllable Perceptible,1,4,0,72,16,0,Mild,Controllable,1
625,7,Uncontrollable Unpleasant,1,3,0.8134976,73,16,1,Unpleasant,Uncontrollable,1
626,7,Uncontrollable Perceptible,1,4,0,74,16,0,Mild,Uncontrollable,1
627,7,Controllable Perceptible,1,4,0.8476871,75,16,1,Mild,Controllable,0
628,7,Controllable Unpleasant,3,3,0.8809363,76,16,1,Unpleasant,Controllable,0
629,7,Uncontrollable Unpleasant,2,3,0,77,16,0,Unpleasant,Uncontrollable,1
630,7,Controllable Perceptible,1,4,0.9135615,78,16,1,Mild,Controllable,0
631,7,Uncontrollable Perceptible,1,4,0.8644887,79,16,1,Mild,Uncontrollable,1
632,7,Controllable Unpleasant,2,4,0.881062,80,16,1,Unpleasant,Controllable,0
633,7,Uncontrollable Unpleasant,1,4,0.8481394,81,16,1,Unpleasant,Uncontrollable,1
634,7,Controllable Perceptible,1,4,0.7645061,82,16,1,Mild,Controllable,0
635,7,Controllable Unpleasant,2,3,0,83,16,0,Unpleasant,Controllable,1
636,7,Uncontrollable Perceptible,1,4,0.9477991,84,16,1,Mild,Uncontrollable,1
721,1,Uncontrollable Unpleasant,3,2,0,1,19,0,Unpleasant,Uncontrollable,1
722,1,Controllable Unpleasant,3,3,0,2,19,0,Unpleasant,Controllable,1
723,1,Uncontrollable Perceptible,1,4,0,3,19,0,Mild,Uncontrollable,1
724,1,Controllable Perceptible,1,4,0,4,19,0,Mild,Controllable,1
725,1,Controllable Perceptible,1,4,0,5,19,0,Mild,Controllable,1
726,1,Uncontrollable Unpleasant,3,4,0.8810637,6,19,1,Unpleasant,Uncontrollable,1
727,1,Uncontrollable Perceptible,1,4,0,7,19,0,Mild,Uncontrollable,1
728,1,Controllable Unpleasant,3,3,0,8,19,0,Unpleasant,Controllable,1
729,1,Uncontrollable Unpleasant,3,4,0,9,19,0,Unpleasant,Uncontrollable,1
730,1,Controllable Unpleasant,4,0,0,10,19,0,Unpleasant,Controllable,1
731,1,Controllable Perceptible,2,4,0,11,19,0,Mild,Controllable,1
732,1,Uncontrollable Perceptible,1,4,0,12,19,0,Mild,Uncontrollable,1
733,2,Uncontrollable Unpleasant,3,3,0.8810732,13,19,1,Unpleasant,Uncontrollable,1
734,2,Controllable Perceptible,1,4,0,14,19,0,Mild,Controllable,1
735,2,Uncontrollable Perceptible,1,4,0,15,19,0,Mild,Uncontrollable,1
736,2,Controllable Unpleasant,3,4,0.847585,16,19,1,Unpleasant,Controllable,0
737,2,Controllable Perceptible,1,4,0,17,19,0,Mild,Controllable,1
738,2,Uncontrollable Unpleasant,2,3,0,18,19,0,Unpleasant,Uncontrollable,1
739,2,Controllable Unpleasant,3,4,0,19,19,0,Unpleasant,Controllable,1
740,2,Uncontrollable Perceptible,1,4,0,20,19,0,Mild,Uncontrollable,1
741,2,Uncontrollable Perceptible,1,4,0,21,19,0,Mild,Uncontrollable,1
742,2,Uncontrollable Unpleasant,4,3,0,22,19,0,Unpleasant,Uncontrollable,1
743,2,Controllable Unpleasant,4,4,0,23,19,0,Unpleasant,Controllable,1
744,2,Controllable Perceptible,1,4,0.8638719,24,19,1,Mild,Controllable,0
745,3,Uncontrollable Perceptible,1,3,0,25,19,0,Mild,Uncontrollable,1
746,3,Uncontrollable Unpleasant,3,4,0,26,19,0,Unpleasant,Uncontrollable,1
747,3,Controllable Perceptible,2,2,0,27,19,0,Mild,Controllable,1
748,3,Controllable Unpleasant,1,4,0.7806115,28,19,1,Unpleasant,Controllable,0
749,3,Uncontrollable Perceptible,1,4,0,29,19,0,Mild,Uncontrollable,1
750,3,Controllable Perceptible,2,4,0,30,19,0,Mild,Controllable,1
751,3,Uncontrollable Unpleasant,3,4,0,31,19,0,Unpleasant,Uncontrollable,1
752,3,Controllable Unpleasant,1,3,0.864137,32,19,1,Unpleasant,Controllable,0
753,3,Controllable Perceptible,1,3,0,33,19,0,Mild,Controllable,1
754,3,Uncontrollable Unpleasant,3,4,0,34,19,0,Unpleasant,Uncontrollable,1
755,3,Controllable Unpleasant,3,4,0,35,19,0,Unpleasant,Controllable,1
756,3,Uncontrollable Perceptible,1,4,0,36,19,0,Mild,Uncontrollable,1
757,4,Uncontrollable Perceptible,1,4,0,37,19,0,Mild,Uncontrollable,1
758,4,Uncontrollable Unpleasant,3,4,0,38,19,0,Unpleasant,Uncontrollable,1
759,4,Controllable Perceptible,1,4,0,39,19,0,Mild,Controllable,1
760,4,Controllable Unpleasant,4,4,0,40,19,0,Unpleasant,Controllable,1
761,4,Uncontrollable Perceptible,1,4,0,41,19,0,Mild,Uncontrollable,1
762,4,Controllable Perceptible,1,4,0.7980112,42,19,1,Mild,Controllable,0
763,4,Uncontrollable Unpleasant,3,4,0,43,19,0,Unpleasant,Uncontrollable,1
764,4,Controllable Unpleasant,1,4,0.8646577,44,19,1,Unpleasant,Controllable,0
765,4,Uncontrollable Perceptible,1,4,0,45,19,0,Mild,Uncontrollable,1
766,4,Controllable Perceptible,2,4,0,46,19,0,Mild,Controllable,1
767,4,Uncontrollable Unpleasant,3,3,0,47,19,0,Unpleasant,Uncontrollable,1
768,4,Controllable Unpleasant,2,1,0,48,19,0,Unpleasant,Controllable,1
769,5,Controllable Perceptible,1,4,0.9469652,49,19,1,Mild,Controllable,0
770,5,Uncontrollable Unpleasant,3,4,0,50,19,0,Unpleasant,Uncontrollable,1
771,5,Uncontrollable Perceptible,1,4,0,51,19,0,Mild,Uncontrollable,1
772,5,Controllable Unpleasant,2,4,0.7977437,52,19,1,Unpleasant,Controllable,0
773,5,Controllable Perceptible,2,4,0,53,19,0,Mild,Controllable,1
774,5,Uncontrollable Unpleasant,3,4,0,54,19,0,Unpleasant,Uncontrollable,1
775,5,Controllable Unpleasant,4,4,0,55,19,0,Unpleasant,Controllable,1
776,5,Uncontrollable Perceptible,1,4,0,56,19,0,Mild,Uncontrollable,1
777,5,Controllable Perceptible,1,4,0.9312386,57,19,1,Mild,Controllable,0
778,5,Uncontrollable Unpleasant,3,4,0,58,19,0,Unpleasant,Uncontrollable,1
779,5,Controllable Unpleasant,1,4,0.7978068,59,19,1,Unpleasant,Controllable,0
780,5,Uncontrollable Perceptible,1,4,0,60,19,0,Mild,Uncontrollable,1
781,6,Controllable Unpleasant,1,4,0.8810472,61,19,1,Unpleasant,Controllable,0
782,6,Uncontrollable Unpleasant,3,4,0,62,19,0,Unpleasant,Uncontrollable,1
783,6,Controllable Perceptible,1,4,0.8311667,63,19,1,Mild,Controllable,0
784,6,Uncontrollable Perceptible,1,4,0,64,19,0,Mild,Uncontrollable,1
785,6,Controllable Unpleasant,1,3,0.6979646,65,19,1,Unpleasant,Controllable,0
786,6,Uncontrollable Perceptible,1,2,0,66,19,0,Mild,Uncontrollable,1
787,6,Uncontrollable Unpleasant,3,4,0,67,19,0,Unpleasant,Uncontrollable,1
788,6,Controllable Perceptible,1,4,0.7144385,68,19,1,Mild,Controllable,0
789,6,Controllable Perceptible,1,4,0.9142302,69,19,1,Mild,Controllable,0
790,6,Uncontrollable Unpleasant,3,4,0,70,19,0,Unpleasant,Uncontrollable,1
791,6,Controllable Unpleasant,4,3,0,71,19,0,Unpleasant,Controllable,1
792,6,Uncontrollable Perceptible,1,3,0,72,19,0,Mild,Uncontrollable,1
793,7,Controllable Unpleasant,1,4,0.8651339,73,19,1,Unpleasant,Controllable,0
794,7,Uncontrollable Unpleasant,3,4,0,74,19,0,Unpleasant,Uncontrollable,1
795,7,Uncontrollable Perceptible,1,4,0,75,19,0,Mild,Uncontrollable,1
796,7,Controllable Perceptible,2,4,0,76,19,0,Mild,Controllable,1
797,7,Uncontrollable Perceptible,1,4,0,77,19,0,Mild,Uncontrollable,1
798,7,Controllable Unpleasant,1,3,0.7474465,78,19,1,Unpleasant,Controllable,0
799,7,Uncontrollable Unpleasant,2,4,0,79,19,0,Unpleasant,Uncontrollable,1
800,7,Controllable Perceptible,1,4,0.8647694,80,19,1,Mild,Controllable,0
801,7,Controllable Perceptible,1,4,0.6975448,81,19,1,Mild,Controllable,0
802,7,Uncontrollable Unpleasant,1,4,0,82,19,0,Unpleasant,Uncontrollable,1
803,7,Uncontrollable Perceptible,1,4,0,83,19,0,Mild,Uncontrollable,1
804,7,Controllable Unpleasant,4,4,0,84,19,0,Unpleasant,Controllable,1
805,1,Controllable Perceptible,2,3,0,1,20,0,Mild,Controllable,1
806,1,Uncontrollable Unpleasant,2,2,0,2,20,0,Unpleasant,Uncontrollable,1
807,1,Controllable Unpleasant,2,3,0,3,20,0,Unpleasant,Controllable,1
808,1,Uncontrollable Perceptible,2,4,0,4,20,0,Mild,Uncontrollable,1
809,1,Controllable Perceptible,1,3,0,5,20,0,Mild,Controllable,1
810,1,Controllable Unpleasant,3,4,0,6,20,0,Unpleasant,Controllable,1
811,1,Uncontrollable Perceptible,3,3,0,7,20,0,Mild,Uncontrollable,1
812,1,Uncontrollable Unpleasant,0,0,0,8,20,0,Unpleasant,Uncontrollable,1
813,1,Uncontrollable Unpleasant,2,2,0,9,20,0,Unpleasant,Uncontrollable,1
814,1,Controllable Unpleasant,3,4,0,10,20,0,Unpleasant,Controllable,1
815,1,Controllable Perceptible,0,2,0,11,20,0,Mild,Controllable,1
816,1,Uncontrollable Perceptible,1,2,0.9312976,12,20,1,Mild,Uncontrollable,1
817,2,Uncontrollable Perceptible,1,3,0,13,20,0,Mild,Uncontrollable,1
818,2,Controllable Perceptible,3,3,0,14,20,0,Mild,Controllable,1
819,2,Controllable Unpleasant,2,2,0,15,20,0,Unpleasant,Controllable,1
820,2,Uncontrollable Unpleasant,3,0,0,16,20,0,Unpleasant,Uncontrollable,1
821,2,Uncontrollable Perceptible,2,3,0,17,20,0,Mild,Uncontrollable,1
822,2,Uncontrollable Unpleasant,4,3,0,18,20,0,Unpleasant,Uncontrollable,1
823,2,Controllable Unpleasant,3,3,0,19,20,0,Unpleasant,Controllable,1
824,2,Controllable Perceptible,4,4,0,20,20,0,Mild,Controllable,1
825,2,Controllable Unpleasant,3,3,0,21,20,0,Unpleasant,Controllable,1
826,2,Uncontrollable Unpleasant,3,0,0,22,20,0,Unpleasant,Uncontrollable,1
827,2,Controllable Perceptible,0,3,0,23,20,0,Mild,Controllable,1
828,2,Uncontrollable Perceptible,3,0,0,24,20,0,Mild,Uncontrollable,1
829,3,Controllable Perceptible,0,2,0,25,20,0,Mild,Controllable,1
830,3,Uncontrollable Perceptible,3,4,0,26,20,0,Mild,Uncontrollable,1
831,3,Uncontrollable Unpleasant,0,2,0,27,20,0,Unpleasant,Uncontrollable,1
832,3,Controllable Unpleasant,3,4,0.8976187,28,20,1,Unpleasant,Controllable,0
833,3,Uncontrollable Unpleasant,3,0,0,29,20,0,Unpleasant,Uncontrollable,1
834,3,Controllable Perceptible,0,2,0,30,20,0,Mild,Controllable,1
835,3,Uncontrollable Perceptible,3,4,0,31,20,0,Mild,Uncontrollable,1
836,3,Controllable Unpleasant,3,4,0,32,20,0,Unpleasant,Controllable,1
837,3,Uncontrollable Unpleasant,3,0,0.8477573,33,20,1,Unpleasant,Uncontrollable,1
838,3,Controllable Unpleasant,3,3,0,34,20,0,Unpleasant,Controllable,1
839,3,Uncontrollable Perceptible,2,4,0,35,20,0,Mild,Uncontrollable,1
840,3,Controllable Perceptible,2,4,0,36,20,0,Mild,Controllable,1
841,4,Uncontrollable Perceptible,2,4,0.9152056,37,20,1,Mild,Uncontrollable,1
842,4,Controllable Perceptible,3,3,0,38,20,0,Mild,Controllable,1
843,4,Controllable Unpleasant,2,4,0,39,20,0,Unpleasant,Controllable,1
844,4,Uncontrollable Unpleasant,3,4,0.8642049,40,20,1,Unpleasant,Uncontrollable,1
845,4,Controllable Perceptible,2,4,0,41,20,0,Mild,Controllable,1
846,4,Uncontrollable Perceptible,3,3,0,42,20,0,Mild,Uncontrollable,1
847,4,Uncontrollable Unpleasant,3,3,0.9477786,43,20,1,Unpleasant,Uncontrollable,1
848,4,Controllable Unpleasant,3,4,0,44,20,0,Unpleasant,Controllable,1
849,4,Uncontrollable Perceptible,2,4,0,45,20,0,Mild,Uncontrollable,1
850,4,Controllable Unpleasant,1,4,0.9479558,46,20,1,Unpleasant,Controllable,0
851,4,Controllable Perceptible,2,4,0,47,20,0,Mild,Controllable,1
852,4,Uncontrollable Unpleasant,3,3,0,48,20,0,Unpleasant,Uncontrollable,1
853,5,Controllable Unpleasant,2,4,0.8973339,49,20,1,Unpleasant,Controllable,0
854,5,Controllable Perceptible,1,4,0.8642801,50,20,1,Mild,Controllable,0
855,5,Uncontrollable Unpleasant,3,3,0.880713,51,20,1,Unpleasant,Uncontrollable,1
856,5,Uncontrollable Perceptible,2,4,0,52,20,0,Mild,Uncontrollable,1
857,5,Uncontrollable Unpleasant,3,4,0,53,20,0,Unpleasant,Uncontrollable,1
858,5,Uncontrollable Perceptible,2,3,0,54,20,0,Mild,Uncontrollable,1
859,5,Controllable Perceptible,2,4,0,55,20,0,Mild,Controllable,1
860,5,Controllable Unpleasant,3,4,0,56,20,0,Unpleasant,Controllable,1
861,5,Uncontrollable Perceptible,2,4,0.8645307,57,20,1,Mild,Uncontrollable,1
862,5,Controllable Perceptible,2,4,0,58,20,0,Mild,Controllable,1
863,5,Controllable Unpleasant,2,4,0.8641508,59,20,1,Unpleasant,Controllable,0
864,5,Uncontrollable Unpleasant,3,4,0,60,20,0,Unpleasant,Uncontrollable,1
865,6,Uncontrollable Perceptible,2,4,0,61,20,0,Mild,Uncontrollable,1
866,6,Controllable Perceptible,3,3,0,62,20,0,Mild,Controllable,1
867,6,Uncontrollable Unpleasant,2,4,0,63,20,0,Unpleasant,Uncontrollable,1
868,6,Controllable Unpleasant,1,4,0.9478763,64,20,1,Unpleasant,Controllable,0
869,6,Controllable Unpleasant,2,3,0.9140408,65,20,1,Unpleasant,Controllable,0
870,6,Uncontrollable Unpleasant,3,3,0,66,20,0,Unpleasant,Uncontrollable,1
871,6,Controllable Perceptible,1,4,0.8643071,67,20,1,Mild,Controllable,0
872,6,Uncontrollable Perceptible,2,4,0.8813684,68,20,1,Mild,Uncontrollable,1
873,6,Controllable Unpleasant,3,4,0,69,20,0,Unpleasant,Controllable,1
874,6,Uncontrollable Perceptible,4,4,0.797899,70,20,1,Mild,Uncontrollable,1
875,6,Uncontrollable Unpleasant,3,4,0.8315205,71,20,1,Unpleasant,Uncontrollable,1
876,6,Controllable Perceptible,1,4,0.8315775,72,20,1,Mild,Controllable,0
877,7,Uncontrollable Unpleasant,3,4,0.8646199,73,20,1,Unpleasant,Uncontrollable,1
878,7,Controllable Perceptible,1,4,0.9140218,74,20,1,Mild,Controllable,0
879,7,Uncontrollable Perceptible,2,4,0,75,20,0,Mild,Uncontrollable,1
880,7,Controllable Unpleasant,3,3,0,76,20,0,Unpleasant,Controllable,1
881,7,Controllable Perceptible,1,4,0.8313264,77,20,1,Mild,Controllable,0
882,7,Controllable Unpleasant,1,4,0.7810806,78,20,1,Unpleasant,Controllable,0
883,7,Uncontrollable Perceptible,2,4,0.8643996,79,20,1,Mild,Uncontrollable,1
884,7,Uncontrollable Unpleasant,3,4,0.8804564,80,20,1,Unpleasant,Uncontrollable,1
885,7,Controllable Unpleasant,3,4,0,81,20,0,Unpleasant,Controllable,1
886,7,Uncontrollable Unpleasant,3,4,0.9482203,82,20,1,Unpleasant,Uncontrollable,1
887,7,Uncontrollable Perceptible,2,4,0.8481366,83,20,1,Mild,Uncontrollable,1
888,7,Controllable Perceptible,2,4,0,84,20,0,Mild,Controllable,1
889,1,Uncontrollable Unpleasant,2,3,0.881119,1,21,1,Unpleasant,Uncontrollable,1
890,1,Uncontrollable Perceptible,2,3,0.8645621,2,21,1,Mild,Uncontrollable,1
891,1,Controllable Perceptible,2,2,0.9311642,3,21,1,Mild,Controllable,0
892,1,Controllable Unpleasant,3,4,0.7812691,4,21,1,Unpleasant,Controllable,0
893,1,Controllable Unpleasant,3,3,0,5,21,0,Unpleasant,Controllable,1
894,1,Uncontrollable Unpleasant,3,2,0,6,21,0,Unpleasant,Uncontrollable,1
895,1,Uncontrollable Perceptible,1,1,0.814114,7,21,1,Mild,Uncontrollable,1
896,1,Controllable Perceptible,1,1,0.8976884,8,21,1,Mild,Controllable,0
897,1,Controllable Unpleasant,3,3,0.814143,9,21,1,Unpleasant,Controllable,0
898,1,Controllable Perceptible,1,3,0.7802358,10,21,1,Mild,Controllable,0
899,1,Uncontrollable Perceptible,2,3,0.781209,11,21,1,Mild,Uncontrollable,1
900,1,Uncontrollable Unpleasant,3,3,0.7974003,12,21,1,Unpleasant,Uncontrollable,1
901,2,Controllable Perceptible,3,2,0,13,21,0,Mild,Controllable,1
902,2,Controllable Unpleasant,3,3,0.7808182,14,21,1,Unpleasant,Controllable,0
903,2,Uncontrollable Unpleasant,3,3,0.7306883,15,21,1,Unpleasant,Uncontrollable,1
904,2,Uncontrollable Perceptible,2,3,0.813695,16,21,1,Mild,Uncontrollable,1
905,2,Controllable Unpleasant,3,3,0.7973036,17,21,1,Unpleasant,Controllable,0
906,2,Controllable Perceptible,2,3,0,18,21,0,Mild,Controllable,1
907,2,Uncontrollable Perceptible,2,3,0.7472357,19,21,1,Mild,Uncontrollable,1
908,2,Uncontrollable Unpleasant,3,3,0.7812254,20,21,1,Unpleasant,Uncontrollable,1
909,2,Controllable Perceptible,2,3,0.7809143,21,21,1,Mild,Controllable,0
910,2,Uncontrollable Unpleasant,3,3,0.7971663,22,21,1,Unpleasant,Uncontrollable,1
911,2,Uncontrollable Perceptible,3,2,0.7814713,23,21,1,Mild,Uncontrollable,1
912,2,Controllable Unpleasant,3,4,0.8478459,24,21,1,Unpleasant,Controllable,0
913,3,Controllable Perceptible,2,3,0.7646532,25,21,1,Mild,Controllable,0
914,3,Uncontrollable Perceptible,2,3,0.8978415,26,21,1,Mild,Uncontrollable,1
915,3,Uncontrollable Unpleasant,3,3,0,27,21,0,Unpleasant,Uncontrollable,1
916,3,Controllable Unpleasant,3,2,0,28,21,0,Unpleasant,Controllable,1
917,3,Controllable Perceptible,2,3,0.7975537,29,21,1,Mild,Controllable,0
918,3,Uncontrollable Unpleasant,3,2,0.6974585,30,21,1,Unpleasant,Uncontrollable,1
919,3,Controllable Unpleasant,3,3,0.764184,31,21,1,Unpleasant,Controllable,0
920,3,Uncontrollable Perceptible,2,3,0.7475562,32,21,1,Mild,Uncontrollable,1
921,3,Controllable Perceptible,2,3,0.7646276,33,21,1,Mild,Controllable,0
922,3,Controllable Unpleasant,3,3,0.7981796,34,21,1,Unpleasant,Controllable,0
923,3,Uncontrollable Perceptible,3,3,0.8813006,35,21,1,Mild,Uncontrollable,1
924,3,Uncontrollable Unpleasant,3,3,0.7305835,36,21,1,Unpleasant,Uncontrollable,1
925,4,Controllable Unpleasant,3,3,0.7804969,37,21,1,Unpleasant,Controllable,0
926,4,Controllable Perceptible,3,3,0.7976268,38,21,1,Mild,Controllable,0
927,4,Uncontrollable Perceptible,3,2,0.8309427,39,21,1,Mild,Uncontrollable,1
928,4,Uncontrollable Unpleasant,3,3,0.7310116,40,21,1,Unpleasant,Uncontrollable,1
929,4,Uncontrollable Perceptible,2,3,0,41,21,0,Mild,Uncontrollable,1
930,4,Controllable Unpleasant,3,3,0.7477775,42,21,1,Unpleasant,Controllable,0
931,4,Uncontrollable Unpleasant,3,3,0.7305966,43,21,1,Unpleasant,Uncontrollable,1
932,4,Controllable Perceptible,2,3,0.9154615,44,21,1,Mild,Controllable,0
933,4,Uncontrollable Unpleasant,3,3,0.8475021,45,21,1,Unpleasant,Uncontrollable,1
934,4,Uncontrollable Perceptible,3,3,0,46,21,0,Mild,Uncontrollable,1
935,4,Controllable Unpleasant,2,2,0,47,21,0,Unpleasant,Controllable,1
936,4,Controllable Perceptible,2,3,0.5646671,48,21,1,Mild,Controllable,0
937,5,Controllable Perceptible,3,2,0.8143473,49,21,1,Mild,Controllable,0
938,5,Uncontrollable Unpleasant,2,2,0,50,21,0,Unpleasant,Uncontrollable,1
939,5,Uncontrollable Perceptible,2,3,0.7978879,51,21,1,Mild,Uncontrollable,1
940,5,Controllable Unpleasant,3,3,0.7974787,52,21,1,Unpleasant,Controllable,0
941,5,Controllable Perceptible,3,2,0.7976417,53,21,1,Mild,Controllable,0
942,5,Uncontrollable Perceptible,2,3,0.9308396,54,21,1,Mild,Uncontrollable,1
943,5,Controllable Unpleasant,3,3,0.7482185,55,21,1,Unpleasant,Controllable,0
944,5,Uncontrollable Unpleasant,3,2,0.7302691,56,21,1,Unpleasant,Uncontrollable,1
945,5,Controllable Perceptible,3,3,0.6981518,57,21,1,Mild,Controllable,0
946,5,Controllable Unpleasant,3,3,0.7647523,58,21,1,Unpleasant,Controllable,0
947,5,Uncontrollable Unpleasant,3,3,0,59,21,0,Unpleasant,Uncontrollable,1
948,5,Uncontrollable Perceptible,2,3,0.7647429,60,21,1,Mild,Uncontrollable,1
949,6,Controllable Perceptible,3,3,0.7644383,61,21,1,Mild,Controllable,0
950,6,Uncontrollable Perceptible,2,2,0.713872,62,21,1,Mild,Uncontrollable,1
951,6,Uncontrollable Unpleasant,3,3,0.8812322,63,21,1,Unpleasant,Uncontrollable,1
952,6,Controllable Unpleasant,3,3,0.8477916,64,21,1,Unpleasant,Controllable,0
953,6,Controllable Unpleasant,4,3,0,65,21,0,Unpleasant,Controllable,1
954,6,Controllable Perceptible,2,3,0.7817816,66,21,1,Mild,Controllable,0
955,6,Uncontrollable Unpleasant,3,3,0.6644063,67,21,1,Unpleasant,Uncontrollable,1
956,6,Uncontrollable Perceptible,2,3,0.7810165,68,21,1,Mild,Uncontrollable,1
957,6,Uncontrollable Perceptible,2,3,0.7647061,69,21,1,Mild,Uncontrollable,1
958,6,Controllable Unpleasant,3,3,0.7982261,70,21,1,Unpleasant,Controllable,0
959,6,Controllable Perceptible,3,3,0.7482932,71,21,1,Mild,Controllable,0
960,6,Uncontrollable Unpleasant,3,2,0.8485546,72,21,1,Unpleasant,Uncontrollable,1
961,7,Controllable Unpleasant,4,3,0.7142481,73,21,1,Unpleasant,Controllable,0
962,7,Uncontrollable Unpleasant,3,3,0.7645254,74,21,1,Unpleasant,Uncontrollable,1
963,7,Uncontrollable Perceptible,3,3,0,75,21,0,Mild,Uncontrollable,1
964,7,Controllable Perceptible,2,3,0.7310625,76,21,1,Mild,Controllable,0
965,7,Uncontrollable Perceptible,2,3,0.7801717,77,21,1,Mild,Uncontrollable,1
966,7,Uncontrollable Unpleasant,4,3,0.7472205,78,21,1,Unpleasant,Uncontrollable,1
967,7,Controllable Unpleasant,4,3,0.8471714,79,21,1,Unpleasant,Controllable,0
968,7,Controllable Perceptible,3,3,0.7810698,80,21,1,Mild,Controllable,0
969,7,Uncontrollable Perceptible,2,3,0,81,21,0,Mild,Uncontrollable,1
970,7,Controllable Unpleasant,4,3,0.764133,82,21,1,Unpleasant,Controllable,0
971,7,Uncontrollable Unpleasant,2,3,0.6968613,83,21,1,Unpleasant,Uncontrollable,1
972,7,Controllable Perceptible,3,3,0.7477085,84,21,1,Mild,Controllable,0
973,1,Uncontrollable Unpleasant,2,3,0,1,22,0,Unpleasant,Uncontrollable,1
974,1,Controllable Perceptible,1,4,0.91422,2,22,1,Mild,Controllable,0
975,1,Controllable Unpleasant,2,4,0.9462226,3,22,1,Unpleasant,Controllable,0
976,1,Uncontrollable Perceptible,1,3,0,4,22,0,Mild,Uncontrollable,1
977,1,Uncontrollable Unpleasant,3,4,0.7976472,5,22,1,Unpleasant,Uncontrollable,1
978,1,Controllable Perceptible,1,4,0.6974718,6,22,1,Mild,Controllable,0
979,1,Uncontrollable Perceptible,1,3,0.764017,7,22,1,Mild,Uncontrollable,1
980,1,Controllable Unpleasant,2,4,0.8813542,8,22,1,Unpleasant,Controllable,0
981,1,Controllable Unpleasant,2,4,0.9140071,9,22,1,Unpleasant,Controllable,0
982,1,Controllable Perceptible,1,4,0.7974119,10,22,1,Mild,Controllable,0
983,1,Uncontrollable Perceptible,1,4,0,11,22,0,Mild,Uncontrollable,1
984,1,Uncontrollable Unpleasant,2,4,0,12,22,0,Unpleasant,Uncontrollable,1
985,2,Uncontrollable Perceptible,1,4,0.8638078,13,22,1,Mild,Uncontrollable,1
986,2,Controllable Unpleasant,2,4,0.8305211,14,22,1,Unpleasant,Controllable,0
987,2,Uncontrollable Unpleasant,3,4,0.729372,15,22,1,Unpleasant,Uncontrollable,1
988,2,Controllable Perceptible,1,4,0.8967849,16,22,1,Mild,Controllable,0
989,2,Uncontrollable Perceptible,1,3,0.914084,17,22,1,Mild,Uncontrollable,1
990,2,Uncontrollable Unpleasant,3,3,0,18,22,0,Unpleasant,Uncontrollable,1
991,2,Controllable Unpleasant,3,4,0.7972524,19,22,1,Unpleasant,Controllable,0
992,2,Controllable Perceptible,1,4,0.8140973,20,22,1,Mild,Controllable,0
993,2,Controllable Perceptible,1,4,0.798087,21,22,1,Mild,Controllable,0
994,2,Uncontrollable Unpleasant,2,3,0,22,22,0,Unpleasant,Uncontrollable,1
995,2,Uncontrollable Perceptible,1,4,0.7977846,23,22,1,Mild,Uncontrollable,1
996,2,Controllable Unpleasant,2,4,0.8976681,24,22,1,Unpleasant,Controllable,0
997,3,Controllable Unpleasant,1,4,0.896779,25,22,1,Unpleasant,Controllable,0
998,3,Uncontrollable Unpleasant,2,4,0,26,22,0,Unpleasant,Uncontrollable,1
999,3,Controllable Perceptible,1,4,0.848114,27,22,1,Mild,Controllable,0
1000,3,Uncontrollable Perceptible,1,4,0.8810659,28,22,1,Mild,Uncontrollable,1
1001,3,Uncontrollable Perceptible,1,4,0.7646829,29,22,1,Mild,Uncontrollable,1
1002,3,Uncontrollable Unpleasant,2,4,0,30,22,0,Unpleasant,Uncontrollable,1
1003,3,Controllable Perceptible,1,4,0.7647756,31,22,1,Mild,Controllable,0
1004,3,Controllable Unpleasant,2,4,0,32,22,0,Unpleasant,Controllable,1
1005,3,Controllable Perceptible,1,3,0,33,22,0,Mild,Controllable,1
1006,3,Controllable Unpleasant,2,3,0.8140955,34,22,1,Unpleasant,Controllable,0
1007,3,Uncontrollable Perceptible,1,4,0.7647191,35,22,1,Mild,Uncontrollable,1
1008,3,Uncontrollable Unpleasant,2,4,0.7648343,36,22,1,Unpleasant,Uncontrollable,1
1009,4,Controllable Unpleasant,2,4,0.7648844,37,22,1,Unpleasant,Controllable,0
1010,4,Uncontrollable Perceptible,1,4,0.8137947,38,22,1,Mild,Uncontrollable,1
1011,4,Uncontrollable Unpleasant,2,4,0.7814706,39,22,1,Unpleasant,Uncontrollable,1
1012,4,Controllable Perceptible,1,4,0.7645402,40,22,1,Mild,Controllable,0
1013,4,Uncontrollable Perceptible,1,4,0.9315077,41,22,1,Mild,Uncontrollable,1
1014,4,Controllable Unpleasant,2,4,0.7637289,42,22,1,Unpleasant,Controllable,0
1015,4,Uncontrollable Unpleasant,2,4,0,43,22,0,Unpleasant,Uncontrollable,1
1016,4,Controllable Perceptible,1,4,0.7641876,44,22,1,Mild,Controllable,0
1017,4,Controllable Perceptible,1,4,0.8644702,45,22,1,Mild,Controllable,0
1018,4,Uncontrollable Unpleasant,2,4,0.7308103,46,22,1,Unpleasant,Uncontrollable,1
1019,4,Controllable Unpleasant,2,4,0.6660252,47,22,1,Unpleasant,Controllable,0
1020,4,Uncontrollable Perceptible,1,4,0.8479706,48,22,1,Mild,Uncontrollable,1
1021,5,Controllable Unpleasant,1,3,0.8310617,49,22,1,Unpleasant,Controllable,0
1022,5,Controllable Perceptible,1,4,0.7978592,50,22,1,Mild,Controllable,0
1023,5,Uncontrollable Perceptible,1,4,0,51,22,0,Mild,Uncontrollable,1
1024,5,Uncontrollable Unpleasant,2,4,0.7140394,52,22,1,Unpleasant,Uncontrollable,1
1025,5,Uncontrollable Unpleasant,2,4,0.7642648,53,22,1,Unpleasant,Uncontrollable,1
1026,5,Controllable Perceptible,1,4,0.8641477,54,22,1,Mild,Controllable,0
1027,5,Uncontrollable Perceptible,1,4,0.8289835,55,22,1,Mild,Uncontrollable,1
1028,5,Controllable Unpleasant,2,4,0.8482591,56,22,1,Unpleasant,Controllable,0
1029,5,Uncontrollable Unpleasant,1,4,0.7485953,57,22,1,Unpleasant,Uncontrollable,1
1030,5,Uncontrollable Perceptible,1,4,0.8811076,58,22,1,Mild,Uncontrollable,1
1031,5,Controllable Perceptible,1,4,0.7315069,59,22,1,Mild,Controllable,0
1032,5,Controllable Unpleasant,2,4,0.880972,60,22,1,Unpleasant,Controllable,0
1033,6,Controllable Perceptible,1,4,0.8147574,61,22,1,Mild,Controllable,0
1034,6,Uncontrollable Unpleasant,1,4,0.8466471,62,22,1,Unpleasant,Uncontrollable,1
1035,6,Controllable Unpleasant,2,4,0,63,22,0,Unpleasant,Controllable,1
1036,6,Uncontrollable Perceptible,1,4,0.7967936,64,22,1,Mild,Uncontrollable,1
1037,6,Uncontrollable Unpleasant,2,4,0.8485125,65,22,1,Unpleasant,Uncontrollable,1
1038,6,Controllable Perceptible,1,4,0,66,22,0,Mild,Controllable,1
1039,6,Uncontrollable Perceptible,1,4,0.7309086,67,22,1,Mild,Uncontrollable,1
1040,6,Controllable Unpleasant,1,4,0.7140507,68,22,1,Unpleasant,Controllable,0
1041,6,Uncontrollable Perceptible,1,4,0.7816304,69,22,1,Mild,Uncontrollable,1
1042,6,Controllable Perceptible,1,4,0.7975151,70,22,1,Mild,Controllable,0
1043,6,Controllable Unpleasant,2,4,0.8814512,71,22,1,Unpleasant,Controllable,0
1044,6,Uncontrollable Unpleasant,2,4,0.8305282,72,22,1,Unpleasant,Uncontrollable,1
1045,7,Controllable Perceptible,1,3,0,73,22,0,Mild,Controllable,1
1046,7,Uncontrollable Unpleasant,2,4,0.831561,74,22,1,Unpleasant,Uncontrollable,1
1047,7,Uncontrollable Perceptible,1,4,0.8973427,75,22,1,Mild,Uncontrollable,1
1048,7,Controllable Unpleasant,2,4,0,76,22,0,Unpleasant,Controllable,1
1049,7,Uncontrollable Perceptible,1,4,0.7972439,77,22,1,Mild,Uncontrollable,1
1050,7,Uncontrollable Unpleasant,1,4,0.8483313,78,22,1,Unpleasant,Uncontrollable,1
1051,7,Controllable Unpleasant,2,4,0,79,22,0,Unpleasant,Controllable,1
1052,7,Controllable Perceptible,1,4,0,80,22,0,Mild,Controllable,1
1053,7,Controllable Unpleasant,2,4,0,81,22,0,Unpleasant,Controllable,1
1054,7,Controllable Perceptible,1,4,0.9307362,82,22,1,Mild,Controllable,0
1055,7,Uncontrollable Unpleasant,2,4,0.6812805,83,22,1,Unpleasant,Uncontrollable,1
1056,7,Uncontrollable Perceptible,1,4,0,84,22,0,Mild,Uncontrollable,1
1057,1,Uncontrollable Unpleasant,3,4,0,1,23,0,Unpleasant,Uncontrollable,1
1058,1,Controllable Unpleasant,2,4,0,2,23,0,Unpleasant,Controllable,1
1059,1,Controllable Perceptible,1,4,0,3,23,0,Mild,Controllable,1
1060,1,Uncontrollable Perceptible,1,4,0.9132543,4,23,1,Mild,Uncontrollable,1
1061,1,Uncontrollable Unpleasant,2,4,0.8974631,5,23,1,Unpleasant,Uncontrollable,1
1062,1,Controllable Perceptible,1,4,0,6,23,0,Mild,Controllable,1
1063,1,Controllable Unpleasant,1,4,0,7,23,0,Unpleasant,Controllable,1
1064,1,Uncontrollable Perceptible,1,4,0,8,23,0,Mild,Uncontrollable,1
1065,1,Controllable Unpleasant,2,4,0.7812186,9,23,1,Unpleasant,Controllable,0
1066,1,Uncontrollable Unpleasant,2,4,0.8136026,10,23,1,Unpleasant,Uncontrollable,1
1067,1,Uncontrollable Perceptible,1,4,0,11,23,0,Mild,Uncontrollable,1
1068,1,Controllable Perceptible,1,4,0,12,23,0,Mild,Controllable,1
1069,2,Uncontrollable Perceptible,1,4,0.7975557,13,23,1,Mild,Uncontrollable,1
1070,2,Controllable Perceptible,1,4,0,14,23,0,Mild,Controllable,1
1071,2,Controllable Unpleasant,2,4,0,15,23,0,Unpleasant,Controllable,1
1072,2,Uncontrollable Unpleasant,1,4,0.8980594,16,23,1,Unpleasant,Uncontrollable,1
1073,2,Uncontrollable Perceptible,1,4,0.7982415,17,23,1,Mild,Uncontrollable,1
1074,2,Controllable Unpleasant,2,4,0.8307591,18,23,1,Unpleasant,Controllable,0
1075,2,Controllable Perceptible,2,4,0,19,23,0,Mild,Controllable,1
1076,2,Uncontrollable Unpleasant,1,4,0,20,23,0,Unpleasant,Uncontrollable,1
1077,2,Uncontrollable Unpleasant,1,4,0.881405,21,23,1,Unpleasant,Uncontrollable,1
1078,2,Uncontrollable Perceptible,1,4,0.8476913,22,23,1,Mild,Uncontrollable,1
1079,2,Controllable Perceptible,2,4,0.7311331,23,23,1,Mild,Controllable,0
1080,2,Controllable Unpleasant,2,4,0.7977533,24,23,1,Unpleasant,Controllable,0
1081,3,Uncontrollable Unpleasant,1,4,0.8812039,25,23,1,Unpleasant,Uncontrollable,1
1082,3,Uncontrollable Perceptible,1,4,0.8307128,26,23,1,Mild,Uncontrollable,1
1083,3,Controllable Unpleasant,2,4,0.8141497,27,23,1,Unpleasant,Controllable,0
1084,3,Controllable Perceptible,2,4,0.8313446,28,23,1,Mild,Controllable,0
1085,3,Uncontrollable Perceptible,1,4,0.8644952,29,23,1,Mild,Uncontrollable,1
1086,3,Uncontrollable Unpleasant,1,4,0.7974487,30,23,1,Unpleasant,Uncontrollable,1
1087,3,Controllable Perceptible,2,4,0.780642,31,23,1,Mild,Controllable,0
1088,3,Controllable Unpleasant,2,4,0.8976671,32,23,1,Unpleasant,Controllable,0
1089,3,Controllable Perceptible,1,4,0.8643543,33,23,1,Mild,Controllable,0
1090,3,Uncontrollable Unpleasant,1,4,0.7976887,34,23,1,Unpleasant,Uncontrollable,1
1091,3,Uncontrollable Perceptible,1,4,0.7810849,35,23,1,Mild,Uncontrollable,1
1092,3,Controllable Unpleasant,2,4,0.8310248,36,23,1,Unpleasant,Controllable,0
1093,4,Controllable Perceptible,1,4,0.7806071,37,23,1,Mild,Controllable,0
1094,4,Controllable Unpleasant,2,4,0.7474804,38,23,1,Unpleasant,Controllable,0
1095,4,Uncontrollable Perceptible,1,4,0.864501,39,23,1,Mild,Uncontrollable,1
1096,4,Uncontrollable Unpleasant,1,4,0.8138629,40,23,1,Unpleasant,Uncontrollable,1
1097,4,Uncontrollable Unpleasant,1,4,0.7809929,41,23,1,Unpleasant,Uncontrollable,1
1098,4,Uncontrollable Perceptible,1,4,0.865139,42,23,1,Mild,Uncontrollable,1
1099,4,Controllable Perceptible,1,4,0.9477336,43,23,1,Mild,Controllable,0
1100,4,Controllable Unpleasant,2,4,0.8476728,44,23,1,Unpleasant,Controllable,0
1101,4,Controllable Unpleasant,2,4,0.9143314,45,23,1,Unpleasant,Controllable,0
1102,4,Controllable Perceptible,1,4,0.7812494,46,23,1,Mild,Controllable,0
1103,4,Uncontrollable Perceptible,1,4,0.8306798,47,23,1,Mild,Uncontrollable,1
1104,4,Uncontrollable Unpleasant,1,4,0.8308955,48,23,1,Unpleasant,Uncontrollable,1
1105,5,Controllable Unpleasant,2,4,0.7644743,49,23,1,Unpleasant,Controllable,0
1106,5,Uncontrollable Perceptible,1,4,0,50,23,0,Mild,Uncontrollable,1
1107,5,Controllable Perceptible,1,4,0.7976113,51,23,1,Mild,Controllable,0
1108,5,Uncontrollable Unpleasant,1,4,0.8137664,52,23,1,Unpleasant,Uncontrollable,1
1109,5,Controllable Unpleasant,2,4,0.7972056,53,23,1,Unpleasant,Controllable,0
1110,5,Uncontrollable Unpleasant,1,4,0.7977259,54,23,1,Unpleasant,Uncontrollable,1
1111,5,Controllable Perceptible,1,4,0,55,23,0,Mild,Controllable,1
1112,5,Uncontrollable Perceptible,1,4,0.7977532,56,23,1,Mild,Uncontrollable,1
1113,5,Controllable Perceptible,1,4,0.7811443,57,23,1,Mild,Controllable,0
1114,5,Uncontrollable Perceptible,1,4,0,58,23,0,Mild,Uncontrollable,1
1115,5,Controllable Unpleasant,2,4,0,59,23,0,Unpleasant,Controllable,1
1116,5,Uncontrollable Unpleasant,1,4,0.897347,60,23,1,Unpleasant,Uncontrollable,1
1117,6,Uncontrollable Unpleasant,1,4,0.7974168,61,23,1,Unpleasant,Uncontrollable,1
1118,6,Uncontrollable Perceptible,1,4,0.7645284,62,23,1,Mild,Uncontrollable,1
1119,6,Controllable Perceptible,1,4,0.747755,63,23,1,Mild,Controllable,0
1120,6,Controllable Unpleasant,2,4,0.8643465,64,23,1,Unpleasant,Controllable,0
1121,6,Uncontrollable Perceptible,1,4,0.8475445,65,23,1,Mild,Uncontrollable,1
1122,6,Uncontrollable Unpleasant,1,4,0.8134632,66,23,1,Unpleasant,Uncontrollable,1
1123,6,Controllable Unpleasant,2,4,0.797382,67,23,1,Unpleasant,Controllable,0
1124,6,Controllable Perceptible,1,4,0.7646236,68,23,1,Mild,Controllable,0
1125,6,Controllable Unpleasant,2,4,0.7647638,69,23,1,Unpleasant,Controllable,0
1126,6,Uncontrollable Unpleasant,1,4,0,70,23,0,Unpleasant,Uncontrollable,1
1127,6,Uncontrollable Perceptible,1,4,0.7983199,71,23,1,Mild,Uncontrollable,1
1128,6,Controllable Perceptible,1,4,0.7977133,72,23,1,Mild,Controllable,0
1129,7,Uncontrollable Unpleasant,2,4,0.7975773,73,23,1,Unpleasant,Uncontrollable,1
1130,7,Controllable Unpleasant,3,4,0.7977013,74,23,1,Unpleasant,Controllable,0
1131,7,Uncontrollable Perceptible,1,4,0.7978587,75,23,1,Mild,Uncontrollable,1
1132,7,Controllable Perceptible,1,4,0.7308376,76,23,1,Mild,Controllable,0
1133,7,Controllable Perceptible,1,4,0.8640467,77,23,1,Mild,Controllable,0
1134,7,Uncontrollable Perceptible,1,4,0,78,23,0,Mild,Uncontrollable,1
1135,7,Controllable Unpleasant,3,4,0.748008,79,23,1,Unpleasant,Controllable,0
1136,7,Uncontrollable Unpleasant,2,4,0.8135192,80,23,1,Unpleasant,Uncontrollable,1
1137,7,Controllable Unpleasant,3,4,0.7478524,81,23,1,Unpleasant,Controllable,0
1138,7,Uncontrollable Unpleasant,2,4,0.780933,82,23,1,Unpleasant,Uncontrollable,1
1139,7,Controllable Perceptible,1,4,0.7979294,83,23,1,Mild,Controllable,0
1140,7,Uncontrollable Perceptible,1,4,0.8317699,84,23,1,Mild,Uncontrollable,1
1141,1,Controllable Unpleasant,3,2,0.7813454,1,24,1,Unpleasant,Controllable,0
1142,1,Uncontrollable Unpleasant,2,3,0.8975803,2,24,1,Unpleasant,Uncontrollable,1
1143,1,Uncontrollable Perceptible,1,2,0.864424,3,24,1,Mild,Uncontrollable,1
1144,1,Controllable Perceptible,3,3,0,4,24,0,Mild,Controllable,1
1145,1,Controllable Perceptible,0,3,0.7973191,5,24,1,Mild,Controllable,0
1146,1,Uncontrollable Unpleasant,3,2,0.764973,6,24,1,Unpleasant,Uncontrollable,1
1147,1,Uncontrollable Perceptible,2,3,0,7,24,0,Mild,Uncontrollable,1
1148,1,Controllable Unpleasant,3,4,0.8645059,8,24,1,Unpleasant,Controllable,0
1149,1,Controllable Perceptible,2,3,0,9,24,0,Mild,Controllable,1
1150,1,Controllable Unpleasant,4,3,0.8309007,10,24,1,Unpleasant,Controllable,0
1151,1,Uncontrollable Unpleasant,4,3,0.7306211,11,24,1,Unpleasant,Uncontrollable,1
1152,1,Uncontrollable Perceptible,3,3,0,12,24,0,Mild,Uncontrollable,1
1153,2,Controllable Perceptible,3,3,0.8137094,13,24,1,Mild,Controllable,0
1154,2,Controllable Unpleasant,3,3,0.7972925,14,24,1,Unpleasant,Controllable,0
1155,2,Uncontrollable Unpleasant,2,2,0.814247,15,24,1,Unpleasant,Uncontrollable,1
1156,2,Uncontrollable Perceptible,3,2,0.9138814,16,24,1,Mild,Uncontrollable,1
1157,2,Uncontrollable Unpleasant,2,3,0,17,24,0,Unpleasant,Uncontrollable,1
1158,2,Uncontrollable Perceptible,2,2,0.7481874,18,24,1,Mild,Uncontrollable,1
1159,2,Controllable Perceptible,3,2,0,19,24,0,Mild,Controllable,1
1160,2,Controllable Unpleasant,3,4,0.8481338,20,24,1,Unpleasant,Controllable,0
1161,2,Controllable Perceptible,2,4,0.9308076,21,24,1,Mild,Controllable,0
1162,2,Uncontrollable Perceptible,2,3,0.8141894,22,24,1,Mild,Uncontrollable,1
1163,2,Uncontrollable Unpleasant,3,3,0.7971469,23,24,1,Unpleasant,Uncontrollable,1
1164,2,Controllable Unpleasant,3,3,0.8133503,24,24,1,Unpleasant,Controllable,0
1165,3,Controllable Perceptible,2,3,0.814434,25,24,1,Mild,Controllable,0
1166,3,Uncontrollable Unpleasant,3,2,0,26,24,0,Unpleasant,Uncontrollable,1
1167,3,Uncontrollable Perceptible,2,3,0.7814972,27,24,1,Mild,Uncontrollable,1
1168,3,Controllable Unpleasant,3,4,0.8656813,28,24,1,Unpleasant,Controllable,0
1169,3,Uncontrollable Perceptible,2,4,0.7488645,29,24,1,Mild,Uncontrollable,1
1170,3,Controllable Perceptible,4,4,0,30,24,0,Mild,Controllable,1
1171,3,Controllable Unpleasant,3,4,0.8308474,31,24,1,Unpleasant,Controllable,0
1172,3,Uncontrollable Unpleasant,2,3,0.6478238,32,24,1,Unpleasant,Uncontrollable,1
1173,3,Uncontrollable Perceptible,2,2,0.9479693,33,24,1,Mild,Uncontrollable,1
1174,3,Uncontrollable Unpleasant,0,2,0.7972116,34,24,1,Unpleasant,Uncontrollable,1
1175,3,Controllable Unpleasant,3,2,0,35,24,0,Unpleasant,Controllable,1
1176,3,Controllable Perceptible,2,3,0.9481455,36,24,1,Mild,Controllable,0
1177,4,Controllable Perceptible,3,3,0.8139492,37,24,1,Mild,Controllable,0
1178,4,Controllable Unpleasant,3,4,0.8136949,38,24,1,Unpleasant,Controllable,0
1179,4,Uncontrollable Unpleasant,2,3,0.7977819,39,24,1,Unpleasant,Uncontrollable,1
1180,4,Uncontrollable Perceptible,1,3,0.8482644,40,24,1,Mild,Uncontrollable,1
1181,4,Controllable Perceptible,2,3,0.8312498,41,24,1,Mild,Controllable,0
1182,4,Uncontrollable Perceptible,1,3,0.8312425,42,24,1,Mild,Uncontrollable,1
1183,4,Uncontrollable Unpleasant,3,1,0.8647529,43,24,1,Unpleasant,Uncontrollable,1
1184,4,Controllable Unpleasant,2,3,0.8313433,44,24,1,Unpleasant,Controllable,0
1185,4,Uncontrollable Perceptible,1,3,0.7976972,45,24,1,Mild,Uncontrollable,1
1186,4,Controllable Perceptible,2,2,0,46,24,0,Mild,Controllable,1
1187,4,Uncontrollable Unpleasant,1,3,0,47,24,0,Unpleasant,Uncontrollable,1
1188,4,Controllable Unpleasant,3,4,0.9315551,48,24,1,Unpleasant,Controllable,0
1189,5,Uncontrollable Perceptible,2,3,0.8308459,49,24,1,Mild,Uncontrollable,1
1190,5,Controllable Perceptible,0,0,0,50,24,0,Mild,Controllable,1
1191,5,Controllable Unpleasant,3,4,0.730867,51,24,1,Unpleasant,Controllable,0
1192,5,Uncontrollable Unpleasant,2,2,0.8814306,52,24,1,Unpleasant,Uncontrollable,1
1193,5,Controllable Unpleasant,2,1,0,53,24,0,Unpleasant,Controllable,1
1194,5,Uncontrollable Perceptible,1,3,0,54,24,0,Mild,Uncontrollable,1
1195,5,Controllable Perceptible,3,3,0.8813343,55,24,1,Mild,Controllable,0
1196,5,Uncontrollable Unpleasant,2,3,0.797503,56,24,1,Unpleasant,Uncontrollable,1
1197,5,Uncontrollable Perceptible,2,2,0,57,24,0,Mild,Uncontrollable,1
1198,5,Uncontrollable Unpleasant,2,4,0.8137497,58,24,1,Unpleasant,Uncontrollable,1
1199,5,Controllable Unpleasant,3,3,0.8311104,59,24,1,Unpleasant,Controllable,0
1200,5,Controllable Perceptible,2,3,0.7817999,60,24,1,Mild,Controllable,0
1201,6,Controllable Perceptible,2,4,0.8142276,61,24,1,Mild,Controllable,0
1202,6,Controllable Unpleasant,2,3,0.7650977,62,24,1,Unpleasant,Controllable,0
1203,6,Uncontrollable Unpleasant,2,2,0.7308168,63,24,1,Unpleasant,Uncontrollable,1
1204,6,Uncontrollable Perceptible,1,0,0.8974701,64,24,1,Mild,Uncontrollable,1
1205,6,Controllable Unpleasant,3,3,0.7806585,65,24,1,Unpleasant,Controllable,0
1206,6,Uncontrollable Unpleasant,2,4,0.7976104,66,24,1,Unpleasant,Uncontrollable,1
1207,6,Uncontrollable Perceptible,2,2,0.7808899,67,24,1,Mild,Uncontrollable,1
1208,6,Controllable Perceptible,1,2,0,68,24,0,Mild,Controllable,1
1209,6,Controllable Perceptible,1,4,0.7309039,69,24,1,Mild,Controllable,0
1210,6,Controllable Unpleasant,2,3,0.8140919,70,24,1,Unpleasant,Controllable,0
1211,6,Uncontrollable Perceptible,0,0,0,71,24,0,Mild,Uncontrollable,1
1212,6,Uncontrollable Unpleasant,3,2,0.8138899,72,24,1,Unpleasant,Uncontrollable,1
1213,7,Controllable Unpleasant,2,3,0.7972242,73,24,1,Unpleasant,Controllable,0
1214,7,Uncontrollable Perceptible,2,3,0.8816058,74,24,1,Mild,Uncontrollable,1
1215,7,Uncontrollable Unpleasant,1,2,0,75,24,0,Unpleasant,Uncontrollable,1
1216,7,Controllable Perceptible,3,2,0,76,24,0,Mild,Controllable,1
1217,7,Controllable Perceptible,2,3,0.8485644,77,24,1,Mild,Controllable,0
1218,7,Uncontrollable Unpleasant,2,3,0.7975074,78,24,1,Unpleasant,Uncontrollable,1
1219,7,Uncontrollable Perceptible,2,4,0.814178,79,24,1,Mild,Uncontrollable,1
1220,7,Controllable Unpleasant,3,4,0.7639654,80,24,1,Unpleasant,Controllable,0
1221,7,Uncontrollable Unpleasant,2,2,0.7976684,81,24,1,Unpleasant,Uncontrollable,1
1222,7,Uncontrollable Perceptible,1,4,0.9138191,82,24,1,Mild,Uncontrollable,1
1223,7,Controllable Perceptible,2,3,0.7974267,83,24,1,Mild,Controllable,0
1224,7,Controllable Unpleasant,2,3,0.7808854,84,24,1,Unpleasant,Controllable,0
1225,1,Controllable Perceptible,1,4,0.897096,1,25,1,Mild,Controllable,0
1226,1,Uncontrollable Perceptible,1,4,0.7978514,2,25,1,Mild,Uncontrollable,1
1227,1,Uncontrollable Unpleasant,2,4,0,3,25,0,Unpleasant,Uncontrollable,1
1228,1,Controllable Unpleasant,2,4,0.8809697,4,25,1,Unpleasant,Controllable,0
1229,1,Uncontrollable Unpleasant,3,2,0.7966739,5,25,1,Unpleasant,Uncontrollable,1
1230,1,Controllable Perceptible,1,3,0,6,25,0,Mild,Controllable,1
1231,1,Uncontrollable Perceptible,1,3,0.9479539,7,25,1,Mild,Uncontrollable,1
1232,1,Controllable Unpleasant,3,3,0.9480058,8,25,1,Unpleasant,Controllable,0
1233,1,Uncontrollable Unpleasant,3,4,0.8478795,9,25,1,Unpleasant,Uncontrollable,1
1234,1,Uncontrollable Perceptible,1,3,0.8482289,10,25,1,Mild,Uncontrollable,1
1235,1,Controllable Perceptible,1,3,0.8973841,11,25,1,Mild,Controllable,0
1236,1,Controllable Unpleasant,2,4,0.947496,12,25,1,Unpleasant,Controllable,0
1237,2,Controllable Perceptible,1,4,0.8816093,13,25,1,Mild,Controllable,0
1238,2,Uncontrollable Unpleasant,3,4,0.7808488,14,25,1,Unpleasant,Uncontrollable,1
1239,2,Controllable Unpleasant,1,3,0.8481191,15,25,1,Unpleasant,Controllable,0
1240,2,Uncontrollable Perceptible,1,4,0.8648792,16,25,1,Mild,Uncontrollable,1
1241,2,Controllable Unpleasant,2,3,0.8646869,17,25,1,Unpleasant,Controllable,0
1242,2,Uncontrollable Unpleasant,2,4,0.7651575,18,25,1,Unpleasant,Uncontrollable,1
1243,2,Controllable Perceptible,1,4,0.8638795,19,25,1,Mild,Controllable,0
1244,2,Uncontrollable Perceptible,1,3,0.846638,20,25,1,Mild,Uncontrollable,1
1245,2,Controllable Perceptible,2,4,0,21,25,0,Mild,Controllable,1
1246,2,Controllable Unpleasant,2,1,0,22,25,0,Unpleasant,Controllable,1
1247,2,Uncontrollable Perceptible,1,2,0.9480595,23,25,1,Mild,Uncontrollable,1
1248,2,Uncontrollable Unpleasant,3,4,0,24,25,0,Unpleasant,Uncontrollable,1
1249,3,Uncontrollable Unpleasant,2,4,0,25,25,0,Unpleasant,Uncontrollable,1
1250,3,Controllable Perceptible,2,4,0,26,25,0,Mild,Controllable,1
1251,3,Controllable Unpleasant,3,4,0,27,25,0,Unpleasant,Controllable,1
1252,3,Uncontrollable Perceptible,2,4,0.8305611,28,25,1,Mild,Uncontrollable,1
1253,3,Controllable Perceptible,2,4,0.7801106,29,25,1,Mild,Controllable,0
1254,3,Uncontrollable Perceptible,1,3,0.9649738,30,25,1,Mild,Uncontrollable,1
1255,3,Controllable Unpleasant,3,4,0.8140804,31,25,1,Unpleasant,Controllable,0
1256,3,Uncontrollable Unpleasant,2,4,0.8138906,32,25,1,Unpleasant,Uncontrollable,1
1257,3,Controllable Unpleasant,3,4,0,33,25,0,Unpleasant,Controllable,1
1258,3,Controllable Perceptible,2,4,0,34,25,0,Mild,Controllable,1
1259,3,Uncontrollable Unpleasant,2,2,0.8810826,35,25,1,Unpleasant,Uncontrollable,1
1260,3,Uncontrollable Perceptible,1,3,0.8977735,36,25,1,Mild,Uncontrollable,1
1261,4,Controllable Perceptible,1,4,0.7976064,37,25,1,Mild,Controllable,0
1262,4,Controllable Unpleasant,2,3,0.8645504,38,25,1,Unpleasant,Controllable,0
1263,4,Uncontrollable Perceptible,1,4,0.9649561,39,25,1,Mild,Uncontrollable,1
1264,4,Uncontrollable Unpleasant,2,4,0,40,25,0,Unpleasant,Uncontrollable,1
1265,4,Controllable Unpleasant,3,3,0.76505,41,25,1,Unpleasant,Controllable,0
1266,4,Controllable Perceptible,1,3,0.7977099,42,25,1,Mild,Controllable,0
1267,4,Uncontrollable Unpleasant,2,4,0.7803051,43,25,1,Unpleasant,Uncontrollable,1
1268,4,Uncontrollable Perceptible,1,4,0.8991789,44,25,1,Mild,Uncontrollable,1
1269,4,Uncontrollable Perceptible,1,4,0.7808957,45,25,1,Mild,Uncontrollable,1
1270,4,Controllable Unpleasant,4,3,0,46,25,0,Unpleasant,Controllable,1
1271,4,Controllable Perceptible,2,4,0.8807404,47,25,1,Mild,Controllable,0
1272,4,Uncontrollable Unpleasant,1,3,0.76377,48,25,1,Unpleasant,Uncontrollable,1
1273,5,Uncontrollable Perceptible,1,4,0,49,25,0,Mild,Uncontrollable,1
1274,5,Controllable Perceptible,1,4,0,50,25,0,Mild,Controllable,1
1275,5,Controllable Unpleasant,3,4,0,51,25,0,Unpleasant,Controllable,1
1276,5,Uncontrollable Unpleasant,2,4,0,52,25,0,Unpleasant,Uncontrollable,1
1277,5,Controllable Perceptible,2,4,0.7972566,53,25,1,Mild,Controllable,0
1278,5,Controllable Unpleasant,2,3,0.7809549,54,25,1,Unpleasant,Controllable,0
1279,5,Uncontrollable Perceptible,1,4,0.7808213,55,25,1,Mild,Uncontrollable,1
1280,5,Uncontrollable Unpleasant,2,4,0,56,25,0,Unpleasant,Uncontrollable,1
1281,5,Uncontrollable Unpleasant,1,4,0.8315977,57,25,1,Unpleasant,Uncontrollable,1
1282,5,Controllable Unpleasant,3,3,0,58,25,0,Unpleasant,Controllable,1
1283,5,Uncontrollable Perceptible,1,3,0,59,25,0,Mild,Uncontrollable,1
1284,5,Controllable Perceptible,2,4,0.8642993,60,25,1,Mild,Controllable,0
1285,6,Controllable Perceptible,2,3,0.8647498,61,25,1,Mild,Controllable,0
1286,6,Uncontrollable Unpleasant,1,4,0.9306548,62,25,1,Unpleasant,Uncontrollable,1
1287,6,Controllable Unpleasant,3,3,0,63,25,0,Unpleasant,Controllable,1
1288,6,Uncontrollable Perceptible,1,4,0,64,25,0,Mild,Uncontrollable,1
1289,6,Controllable Unpleasant,4,3,0,65,25,0,Unpleasant,Controllable,1
1290,6,Controllable Perceptible,2,4,0,66,25,0,Mild,Controllable,1
1291,6,Uncontrollable Perceptible,1,4,0,67,25,0,Mild,Uncontrollable,1
1292,6,Uncontrollable Unpleasant,2,3,0,68,25,0,Unpleasant,Uncontrollable,1
1293,6,Controllable Unpleasant,3,4,0.6977055,69,25,1,Unpleasant,Controllable,0
1294,6,Controllable Perceptible,1,4,0.8810841,70,25,1,Mild,Controllable,0
1295,6,Uncontrollable Perceptible,1,4,0,71,25,0,Mild,Uncontrollable,1
1296,6,Uncontrollable Unpleasant,1,3,0.7973751,72,25,1,Unpleasant,Uncontrollable,1
1297,7,Controllable Unpleasant,2,3,0.7647077,73,25,1,Unpleasant,Controllable,0
1298,7,Controllable Perceptible,2,4,0.8142758,74,25,1,Mild,Controllable,0
1299,7,Uncontrollable Perceptible,1,4,0.7479729,75,25,1,Mild,Uncontrollable,1
1300,7,Uncontrollable Unpleasant,1,3,0.7139767,76,25,1,Unpleasant,Uncontrollable,1
1301,7,Controllable Perceptible,1,4,0.8975043,77,25,1,Mild,Controllable,0
1302,7,Uncontrollable Perceptible,1,4,0,78,25,0,Mild,Uncontrollable,1
1303,7,Uncontrollable Unpleasant,1,4,0.748078,79,25,1,Unpleasant,Uncontrollable,1
1304,7,Controllable Unpleasant,2,4,0.8137419,80,25,1,Unpleasant,Controllable,0
1305,7,Uncontrollable Perceptible,1,4,0.9482584,81,25,1,Mild,Uncontrollable,1
1306,7,Uncontrollable Unpleasant,2,4,0,82,25,0,Unpleasant,Uncontrollable,1
1307,7,Controllable Unpleasant,3,2,0.7807893,83,25,1,Unpleasant,Controllable,0
1308,7,Controllable Perceptible,1,4,0.9641031,84,25,1,Mild,Controllable,0
1309,1,Uncontrollable Unpleasant,4,4,0,1,26,0,Unpleasant,Uncontrollable,1
1310,1,Controllable Perceptible,2,3,0.7809243,2,26,1,Mild,Controllable,0
1311,1,Uncontrollable Perceptible,3,3,0.9143341,3,26,1,Mild,Uncontrollable,1
1312,1,Controllable Unpleasant,4,3,0.7811245,4,26,1,Unpleasant,Controllable,0
1313,1,Uncontrollable Unpleasant,3,4,0.7968879,5,26,1,Unpleasant,Uncontrollable,1
1314,1,Controllable Perceptible,2,4,0.8483575,6,26,1,Mild,Controllable,0
1315,1,Controllable Unpleasant,4,4,0,7,26,0,Unpleasant,Controllable,1
1316,1,Uncontrollable Perceptible,2,4,0,8,26,0,Mild,Uncontrollable,1
1317,1,Controllable Unpleasant,4,4,0.7975367,9,26,1,Unpleasant,Controllable,0
1318,1,Uncontrollable Perceptible,2,4,0.8661225,10,26,1,Mild,Uncontrollable,1
1319,1,Controllable Perceptible,2,4,0.865347,11,26,1,Mild,Controllable,0
1320,1,Uncontrollable Unpleasant,3,3,0.7478228,12,26,1,Unpleasant,Uncontrollable,1
1321,2,Controllable Perceptible,2,3,0.7301369,13,26,1,Mild,Controllable,0
1322,2,Uncontrollable Unpleasant,3,3,0,14,26,0,Unpleasant,Uncontrollable,1
1323,2,Uncontrollable Perceptible,1,3,0,15,26,0,Mild,Uncontrollable,1
1324,2,Controllable Unpleasant,4,4,0.7639361,16,26,1,Unpleasant,Controllable,0
1325,2,Controllable Perceptible,2,3,0,17,26,0,Mild,Controllable,1
1326,2,Controllable Unpleasant,4,4,0.8141241,18,26,1,Unpleasant,Controllable,0
1327,2,Uncontrollable Unpleasant,4,4,0.8645524,19,26,1,Unpleasant,Uncontrollable,1
1328,2,Uncontrollable Perceptible,1,3,0.7972787,20,26,1,Mild,Uncontrollable,1
1329,2,Controllable Unpleasant,4,4,0.8648777,21,26,1,Unpleasant,Controllable,0
1330,2,Uncontrollable Perceptible,2,2,0,22,26,0,Mild,Uncontrollable,1
1331,2,Controllable Perceptible,1,3,0.8644454,23,26,1,Mild,Controllable,0
1332,2,Uncontrollable Unpleasant,4,4,0,24,26,0,Unpleasant,Uncontrollable,1
1333,3,Uncontrollable Unpleasant,3,4,0.7972664,25,26,1,Unpleasant,Uncontrollable,1
1334,3,Controllable Perceptible,1,3,0,26,26,0,Mild,Controllable,1
1335,3,Controllable Unpleasant,4,4,0.7476278,27,26,1,Unpleasant,Controllable,0
1336,3,Uncontrollable Perceptible,2,3,0.9480277,28,26,1,Mild,Uncontrollable,1
1337,3,Controllable Perceptible,2,3,0.8643832,29,26,1,Mild,Controllable,0
1338,3,Uncontrollable Perceptible,1,3,0,30,26,0,Mild,Uncontrollable,1
1339,3,Controllable Unpleasant,4,4,0.6311714,31,26,1,Unpleasant,Controllable,0
1340,3,Uncontrollable Unpleasant,4,3,0.8473813,32,26,1,Unpleasant,Uncontrollable,1
1341,3,Uncontrollable Perceptible,1,3,0.8142669,33,26,1,Mild,Uncontrollable,1
1342,3,Controllable Unpleasant,4,4,0,34,26,0,Unpleasant,Controllable,1
1343,3,Uncontrollable Unpleasant,3,4,0,35,26,0,Unpleasant,Uncontrollable,1
1344,3,Controllable Perceptible,1,3,0.781247,36,26,1,Mild,Controllable,0
1345,4,Uncontrollable Perceptible,1,4,0.8975325,37,26,1,Mild,Uncontrollable,1
1346,4,Uncontrollable Unpleasant,3,4,0,38,26,0,Unpleasant,Uncontrollable,1
1347,4,Controllable Unpleasant,4,4,0,39,26,0,Unpleasant,Controllable,1
1348,4,Controllable Perceptible,1,4,0.8483214,40,26,1,Mild,Controllable,0
1349,4,Controllable Perceptible,2,4,0,41,26,0,Mild,Controllable,1
1350,4,Uncontrollable Perceptible,1,4,0.8132659,42,26,1,Mild,Uncontrollable,1
1351,4,Uncontrollable Unpleasant,3,4,0.6485549,43,26,1,Unpleasant,Uncontrollable,1
1352,4,Controllable Unpleasant,3,4,0,44,26,0,Unpleasant,Controllable,1
1353,4,Uncontrollable Unpleasant,3,4,0.7807364,45,26,1,Unpleasant,Uncontrollable,1
1354,4,Controllable Perceptible,1,4,0,46,26,0,Mild,Controllable,1
1355,4,Uncontrollable Perceptible,1,4,0,47,26,0,Mild,Uncontrollable,1
1356,4,Controllable Unpleasant,4,4,0.8143381,48,26,1,Unpleasant,Controllable,0
1357,5,Controllable Perceptible,1,4,0,49,26,0,Mild,Controllable,1
1358,5,Uncontrollable Unpleasant,3,3,0,50,26,0,Unpleasant,Uncontrollable,1
1359,5,Controllable Unpleasant,4,3,0.7975694,51,26,1,Unpleasant,Controllable,0
1360,5,Uncontrollable Perceptible,1,3,0,52,26,0,Mild,Uncontrollable,1
1361,5,Controllable Unpleasant,4,4,0,53,26,0,Unpleasant,Controllable,1
1362,5,Controllable Perceptible,1,4,0,54,26,0,Mild,Controllable,1
1363,5,Uncontrollable Unpleasant,3,3,0.7974067,55,26,1,Unpleasant,Uncontrollable,1
1364,5,Uncontrollable Perceptible,1,4,0,56,26,0,Mild,Uncontrollable,1
1365,5,Controllable Perceptible,2,3,0.8313754,57,26,1,Mild,Controllable,0
1366,5,Uncontrollable Unpleasant,3,4,0.9129228,58,26,1,Unpleasant,Uncontrollable,1
1367,5,Controllable Unpleasant,4,3,0.781382,59,26,1,Unpleasant,Controllable,0
1368,5,Uncontrollable Perceptible,1,4,0.8647375,60,26,1,Mild,Uncontrollable,1
1369,6,Controllable Unpleasant,4,3,0.9472077,61,26,1,Unpleasant,Controllable,0
1370,6,Uncontrollable Unpleasant,3,4,0,62,26,0,Unpleasant,Uncontrollable,1
1371,6,Controllable Perceptible,1,3,0.8805277,63,26,1,Mild,Controllable,0
1372,6,Uncontrollable Perceptible,1,3,0.8478601,64,26,1,Mild,Uncontrollable,1
1373,6,Uncontrollable Perceptible,1,4,0,65,26,0,Mild,Uncontrollable,1
1374,6,Controllable Perceptible,1,4,0,66,26,0,Mild,Controllable,1
1375,6,Controllable Unpleasant,4,4,0,67,26,0,Unpleasant,Controllable,1
1376,6,Uncontrollable Unpleasant,3,4,0.7144409,68,26,1,Unpleasant,Uncontrollable,1
1377,6,Uncontrollable Unpleasant,3,4,0.8638485,69,26,1,Unpleasant,Uncontrollable,1
1378,6,Uncontrollable Perceptible,1,4,0,70,26,0,Mild,Uncontrollable,1
1379,6,Controllable Unpleasant,3,4,0.8310371,71,26,1,Unpleasant,Controllable,0
1380,6,Controllable Perceptible,1,4,0.7496979,72,26,1,Mild,Controllable,0
1381,7,Controllable Perceptible,1,4,0.8641774,73,26,1,Mild,Controllable,0
1382,7,Uncontrollable Perceptible,1,4,0.8811099,74,26,1,Mild,Uncontrollable,1
1383,7,Uncontrollable Unpleasant,3,4,0.881156,75,26,1,Unpleasant,Uncontrollable,1
1384,7,Controllable Unpleasant,4,4,0,76,26,0,Unpleasant,Controllable,1
1385,7,Controllable Unpleasant,4,3,0.8309688,77,26,1,Unpleasant,Controllable,0
1386,7,Uncontrollable Unpleasant,3,4,0,78,26,0,Unpleasant,Uncontrollable,1
1387,7,Controllable Perceptible,2,4,0,79,26,0,Mild,Controllable,1
1388,7,Uncontrollable Perceptible,1,4,0,80,26,0,Mild,Uncontrollable,1
1389,7,Controllable Unpleasant,3,4,0.7978345,81,26,1,Unpleasant,Controllable,0
1390,7,Controllable Perceptible,1,4,0,82,26,0,Mild,Controllable,1
1391,7,Uncontrollable Perceptible,1,4,0,83,26,0,Mild,Uncontrollable,1
1392,7,Uncontrollable Unpleasant,3,4,0.7648052,84,26,1,Unpleasant,Uncontrollable,1
1393,1,Controllable Unpleasant,2,3,0,1,27,0,Unpleasant,Controllable,1
1394,1,Uncontrollable Perceptible,2,2,0,2,27,0,Mild,Uncontrollable,1
1395,1,Uncontrollable Unpleasant,3,4,0,3,27,0,Unpleasant,Uncontrollable,1
1396,1,Controllable Perceptible,2,3,0,4,27,0,Mild,Controllable,1
1397,1,Uncontrollable Perceptible,0,2,0.9320587,5,27,1,Mild,Uncontrollable,1
1398,1,Uncontrollable Unpleasant,1,2,0,6,27,0,Unpleasant,Uncontrollable,1
1399,1,Controllable Perceptible,3,3,0,7,27,0,Mild,Controllable,1
1400,1,Controllable Unpleasant,2,3,0,8,27,0,Unpleasant,Controllable,1
1401,1,Controllable Unpleasant,2,4,0,9,27,0,Unpleasant,Controllable,1
1402,1,Uncontrollable Perceptible,0,2,0,10,27,0,Mild,Uncontrollable,1
1403,1,Controllable Perceptible,3,3,0.9479357,11,27,1,Mild,Controllable,0
1404,1,Uncontrollable Unpleasant,2,3,0,12,27,0,Unpleasant,Uncontrollable,1
1405,2,Uncontrollable Unpleasant,3,3,0,13,27,0,Unpleasant,Uncontrollable,1
1406,2,Controllable Perceptible,3,4,0,14,27,0,Mild,Controllable,1
1407,2,Controllable Unpleasant,3,4,0,15,27,0,Unpleasant,Controllable,1
1408,2,Uncontrollable Perceptible,2,3,0,16,27,0,Mild,Uncontrollable,1
1409,2,Uncontrollable Unpleasant,3,3,0.880872,17,27,1,Unpleasant,Uncontrollable,1
1410,2,Uncontrollable Perceptible,3,4,0,18,27,0,Mild,Uncontrollable,1
1411,2,Controllable Perceptible,1,3,0,19,27,0,Mild,Controllable,1
1412,2,Controllable Unpleasant,2,3,0,20,27,0,Unpleasant,Controllable,1
1413,2,Uncontrollable Unpleasant,0,3,0,21,27,0,Unpleasant,Uncontrollable,1
1414,2,Uncontrollable Perceptible,2,4,0,22,27,0,Mild,Uncontrollable,1
1415,2,Controllable Perceptible,2,2,0,23,27,0,Mild,Controllable,1
1416,2,Controllable Unpleasant,3,2,0,24,27,0,Unpleasant,Controllable,1
1417,3,Controllable Perceptible,0,2,0,25,27,0,Mild,Controllable,1
1418,3,Controllable Unpleasant,2,3,0,26,27,0,Unpleasant,Controllable,1
1419,3,Uncontrollable Unpleasant,2,3,0,27,27,0,Unpleasant,Uncontrollable,1
1420,3,Uncontrollable Perceptible,3,3,0,28,27,0,Mild,Uncontrollable,1
